
[	{
    "rt": 1357.2900000144728,
    "stimulus": "<DIV align='left'><div>&nbsp;</div><div>Please consider this information carefully before deciding whether to participate in this research.</div><div>&nbsp;</div><div>The purpose of this research is to examine which factors influence social judgment and decision-</div><div>making. You will be asked to make judgements about individuals and actions in social scenarios.</div><div>We are simply interested in your judgement. The study will take less than 1 hour to complete,</div><div>and you will receive less than $20 on Amazon Mechanical Turk. Your compensation and time</div><div>commitment are specified in the study description. There are no anticipated risks associated with</div><div>participating in this study. The effects of participating should be comparable to those you would</div><div>ordinarily experience from viewing a computer monitor and using a mouse or keyboard for a</div><div>similar amount of time. At the end of the study, we will provide an explanation of the questions</div><div>that motivate this line of research and will describe the potential implications.</div><div>&nbsp;</div><div>Your participation in this study is completely voluntary and you may refuse to participate or you</div><div>may choose to withdraw at any time without penalty or loss of benefits to you which are</div><div>otherwise entitled. Your participation in this study will remain confidential. No personally</div><div>identifiable information will be associated with your data. Also, all analyses of the data will be</div><div>averaged across all the participants, so your individual responses will never be specifically</div><div>analyzed.</div><div>&nbsp;</div><div>If you have questions or concerns about your participation or payment, or want to request a</div><div>summary of research findings, please contact Dr. Jonathan Phillips at</div><div><a href=mailto:Jonathan.S.Phillips@dartmouth.edu>Jonathan.S.Phillips@dartmouth.edu</a>.</div><div>&nbsp;</div><div>Please save a copy of this form for your records.</div><div>&nbsp;</div></DIV><div>Agreement:</div><DIV align='left'><div>The nature and purpose of this research have been sufficiently explained and I agree to</div><div>participate in this study. I understand that I am free to withdraw at any time without incurring</div><div>any penalty. Please consent by clicking the button below to continue. Otherwise, please exit the</div><div>study at any time.</div><div>&nbsp;</div></DIV>",
    "button_pressed": "0",
    "internal_type": "consent",
    "trial_type": "html-button-response",
    "trial_index": 0,
    "time_elapsed": 1369,
    "internal_node_id": "0.0-0.0"
},
{
    "rt": 9455.625000002328,
    "responses": "{\"Q0\":\"10\",\"Q1\":\"33\",\"Q2\":\"3\",\"Q3\":\"33\",\"Q4\":\"3\",\"Q5\":\"3\",\"Q6\":\"3\",\"Q7\":\"3\"}",
    "internal_type": "participant_info",
    "trial_type": "survey-text",
    "trial_index": 1,
    "time_elapsed": 10838,
    "internal_node_id": "0.0-1.0"
},
{
    "rt": 1315.294999978505,
    "stimulus": "<h2> Instructions</h2><p>In this study, we'd like you to make judgments about whether something is possible or impossible. To indicate that something is possible, please press the [f] key; to indicate that something is impossible, please press the [j] key. To get you used to this, you will first go through a warm-up phase. On these trials, press [f] if you see the word 'Possible' and [j] if you see the word 'Impossible.'' ***Please take your time and answer as correctly as possible.*** </p><p>Press any key to continue</p>",
    "key_press": 70,
    "trial_type": "html-keyboard-response",
    "trial_index": 2,
    "time_elapsed": 12156,
    "internal_node_id": "0.0-2.0"
},
{
    "rt": 625.289999996312,
    "correct": true,
    "stimulus": "Possible",
    "key_press": 70,
    "trial_type": "categorize-html",
    "trial_index": 3,
    "time_elapsed": 14790,
    "internal_node_id": "0.0-3.0-0.0"
},
{
    "rt": 416.205000015907,
    "correct": true,
    "stimulus": "Impossible",
    "key_press": 74,
    "trial_type": "categorize-html",
    "trial_index": 4,
    "time_elapsed": 17214,
    "internal_node_id": "0.0-3.0-0.1"
},
{
    "rt": 744.1250000265427,
    "correct": true,
    "stimulus": "Impossible",
    "key_press": 74,
    "trial_type": "categorize-html",
    "trial_index": 5,
    "time_elapsed": 19962,
    "internal_node_id": "0.0-3.0-0.2"
},
{
    "rt": 477.8350000269711,
    "correct": true,
    "stimulus": "Possible",
    "key_press": 70,
    "trial_type": "categorize-html",
    "trial_index": 6,
    "time_elapsed": 22448,
    "internal_node_id": "0.0-3.0-0.3"
},
{
    "rt": 763.8350000488572,
    "correct": true,
    "stimulus": "Impossible",
    "key_press": 74,
    "trial_type": "categorize-html",
    "trial_index": 7,
    "time_elapsed": 25219,
    "internal_node_id": "0.0-3.0-0.4"
},
{
    "rt": 740.6199999968521,
    "correct": true,
    "stimulus": "Possible",
    "key_press": 70,
    "trial_type": "categorize-html",
    "trial_index": 8,
    "time_elapsed": 27968,
    "internal_node_id": "0.0-3.0-0.5"
},
{
    "rt": 891.1300000036135,
    "stimulus": "<h2>In this part, you will read a story and then will be judging whether certain events are possible or impossible.</h2> <p>Press any key to continue</p>",
    "key_press": 32,
    "trial_type": "html-keyboard-response",
    "trial_index": 9,
    "time_elapsed": 28860,
    "internal_node_id": "0.0-4.0"
},
{
    "view_history": "[{\"page_index\":0,\"viewing_time\":1771.420000004582},{\"page_index\":1,\"viewing_time\":691.3700000150129}]",
    "rt": 2463.7499999953434,
    "internal_type": "instructions",
    "trial_type": "instructions",
    "trial_index": 10,
    "time_elapsed": 31326,
    "internal_node_id": "0.0-5.0"
},
{
    "rt": 1057.2500000125729,
    "stimulus": "overcharge the next customers",
    "key_press": 70,
    "trial_type": "html-keyboard-response",
    "trial_index": 11,
    "time_elapsed": 32385,
    "internal_node_id": "0.0-6.0-0.0",
    "modal_type": "immoral",
    "speed": "fast",
    "vignette": "Brian",
    "internal_type": "stimulus",
    "answered": "possible"
},
{
    "rt": null,
    "stimulus": "",
    "key_press": null,
    "trial_type": "html-keyboard-response",
    "trial_index": 12,
    "time_elapsed": 32888,
    "internal_node_id": "0.0-6.0-1.0"
},
{
    "rt": 362.6700000022538,
    "stimulus": "steal money from a coworker",
    "key_press": 74,
    "trial_type": "html-keyboard-response",
    "trial_index": 13,
    "time_elapsed": 33253,
    "internal_node_id": "0.0-6.1-0.1",
    "modal_type": "immoral",
    "speed": "fast",
    "vignette": "Brian",
    "internal_type": "stimulus",
    "answered": "impossible"
},
{
    "rt": null,
    "stimulus": "",
    "key_press": null,
    "trial_type": "html-keyboard-response",
    "trial_index": 14,
    "time_elapsed": 33758,
    "internal_node_id": "0.0-6.1-1.1"
},
{
    "rt": 289.33499997947365,
    "stimulus": "lie about how much the bakery sold",
    "key_press": 70,
    "trial_type": "html-keyboard-response",
    "trial_index": 15,
    "time_elapsed": 34049,
    "internal_node_id": "0.0-6.2-0.2",
    "modal_type": "immoral",
    "speed": "fast",
    "vignette": "Brian",
    "internal_type": "stimulus",
    "answered": "possible"
},
{
    "rt": null,
    "stimulus": "",
    "key_press": null,
    "trial_type": "html-keyboard-response",
    "trial_index": 16,
    "time_elapsed": 34550,
    "internal_node_id": "0.0-6.2-1.2"
},
{
    "rt": 285.3349999641068,
    "stimulus": "give new customers incorrect change",
    "key_press": 74,
    "trial_type": "html-keyboard-response",
    "trial_index": 17,
    "time_elapsed": 34837,
    "internal_node_id": "0.0-6.3-0.3",
    "modal_type": "immoral",
    "speed": "fast",
    "vignette": "Brian",
    "internal_type": "stimulus",
    "answered": "impossible"
},
{
    "rt": null,
    "stimulus": "",
    "key_press": null,
    "trial_type": "html-keyboard-response",
    "trial_index": 18,
    "time_elapsed": 35338,
    "internal_node_id": "0.0-6.3-1.3"
},
{
    "rt": 314.5450000301935,
    "stimulus": "find the money on the ground",
    "key_press": 70,
    "trial_type": "html-keyboard-response",
    "trial_index": 19,
    "time_elapsed": 35655,
    "internal_node_id": "0.0-6.4-0.4",
    "modal_type": "improbable",
    "speed": "fast",
    "vignette": "Brian",
    "internal_type": "stimulus",
    "answered": "possible"
},
{
    "rt": null,
    "stimulus": "",
    "key_press": null,
    "trial_type": "html-keyboard-response",
    "trial_index": 20,
    "time_elapsed": 36158,
    "internal_node_id": "0.0-6.4-1.4"
},
{
    "rt": 886.7500000051223,
    "stimulus": "discover the money is in his pocket",
    "key_press": 74,
    "trial_type": "html-keyboard-response",
    "trial_index": 21,
    "time_elapsed": 37046,
    "internal_node_id": "0.0-6.5-0.5",
    "modal_type": "improbable",
    "speed": "fast",
    "vignette": "Brian",
    "internal_type": "stimulus",
    "answered": "impossible"
},
{
    "rt": null,
    "stimulus": "",
    "key_press": null,
    "trial_type": "html-keyboard-response",
    "trial_index": 22,
    "time_elapsed": 37547,
    "internal_node_id": "0.0-6.5-1.5"
},
{
    "rt": 283.20999996503815,
    "stimulus": "get a child to donate the money",
    "key_press": 70,
    "trial_type": "html-keyboard-response",
    "trial_index": 23,
    "time_elapsed": 37831,
    "internal_node_id": "0.0-6.6-0.6",
    "modal_type": "improbable",
    "speed": "fast",
    "vignette": "Brian",
    "internal_type": "stimulus",
    "answered": "possible"
},
{
    "rt": null,
    "stimulus": "",
    "key_press": null,
    "trial_type": "html-keyboard-response",
    "trial_index": 24,
    "time_elapsed": 38336,
    "internal_node_id": "0.0-6.6-1.6"
},
{
    "rt": 200.91499999398366,
    "stimulus": "receive a 100 dollar tip",
    "key_press": 74,
    "trial_type": "html-keyboard-response",
    "trial_index": 25,
    "time_elapsed": 38539,
    "internal_node_id": "0.0-6.7-0.7",
    "modal_type": "improbable",
    "speed": "fast",
    "vignette": "Brian",
    "internal_type": "stimulus",
    "answered": "impossible"
},
{
    "rt": null,
    "stimulus": "",
    "key_press": null,
    "trial_type": "html-keyboard-response",
    "trial_index": 26,
    "time_elapsed": 39040,
    "internal_node_id": "0.0-6.7-1.7"
},
{
    "rt": 266.1699999589473,
    "stimulus": "explain the situation to his boss",
    "key_press": 70,
    "trial_type": "html-keyboard-response",
    "trial_index": 27,
    "time_elapsed": 39308,
    "internal_node_id": "0.0-6.8-0.8",
    "modal_type": "possible",
    "speed": "fast",
    "vignette": "Brian",
    "internal_type": "stimulus",
    "answered": "possible"
},
{
    "rt": null,
    "stimulus": "",
    "key_press": null,
    "trial_type": "html-keyboard-response",
    "trial_index": 28,
    "time_elapsed": 39813,
    "internal_node_id": "0.0-6.8-1.8"
},
{
    "rt": 243.82999999215826,
    "stimulus": "ask other employees what to do",
    "key_press": 74,
    "trial_type": "html-keyboard-response",
    "trial_index": 29,
    "time_elapsed": 40058,
    "internal_node_id": "0.0-6.9-0.9",
    "modal_type": "possible",
    "speed": "fast",
    "vignette": "Brian",
    "internal_type": "stimulus",
    "answered": "impossible"
},
{
    "rt": null,
    "stimulus": "",
    "key_press": null,
    "trial_type": "html-keyboard-response",
    "trial_index": 30,
    "time_elapsed": 40562,
    "internal_node_id": "0.0-6.9-1.9"
},
{
    "rt": 246.99999997392297,
    "stimulus": "use money from his own wallet",
    "key_press": 70,
    "trial_type": "html-keyboard-response",
    "trial_index": 31,
    "time_elapsed": 40811,
    "internal_node_id": "0.0-6.10-0.10",
    "modal_type": "possible",
    "speed": "fast",
    "vignette": "Brian",
    "internal_type": "stimulus",
    "answered": "possible"
},
{
    "rt": null,
    "stimulus": "",
    "key_press": null,
    "trial_type": "html-keyboard-response",
    "trial_index": 32,
    "time_elapsed": 41312,
    "internal_node_id": "0.0-6.10-1.10"
},
{
    "rt": 290.0399999925867,
    "stimulus": "borrow money from a friend",
    "key_press": 74,
    "trial_type": "html-keyboard-response",
    "trial_index": 33,
    "time_elapsed": 41604,
    "internal_node_id": "0.0-6.11-0.11",
    "modal_type": "possible",
    "speed": "fast",
    "vignette": "Brian",
    "internal_type": "stimulus",
    "answered": "impossible"
},
{
    "rt": null,
    "stimulus": "",
    "key_press": null,
    "trial_type": "html-keyboard-response",
    "trial_index": 34,
    "time_elapsed": 42106,
    "internal_node_id": "0.0-6.11-1.11"
},
{
    "rt": 207.66499999444932,
    "stimulus": "close the store five hours early",
    "key_press": 70,
    "trial_type": "html-keyboard-response",
    "trial_index": 35,
    "time_elapsed": 42315,
    "internal_node_id": "0.0-6.12-0.12",
    "modal_type": "irrational",
    "speed": "fast",
    "vignette": "Brian",
    "internal_type": "stimulus",
    "answered": "possible"
},
{
    "rt": null,
    "stimulus": "",
    "key_press": null,
    "trial_type": "html-keyboard-response",
    "trial_index": 36,
    "time_elapsed": 42820,
    "internal_node_id": "0.0-6.12-1.12"
},
{
    "rt": 240.33000000054017,
    "stimulus": "pay with his retirement fund",
    "key_press": 74,
    "trial_type": "html-keyboard-response",
    "trial_index": 37,
    "time_elapsed": 43062,
    "internal_node_id": "0.0-6.13-0.13",
    "modal_type": "irrational",
    "speed": "fast",
    "vignette": "Brian",
    "internal_type": "stimulus",
    "answered": "impossible"
},
{
    "rt": null,
    "stimulus": "",
    "key_press": null,
    "trial_type": "html-keyboard-response",
    "trial_index": 38,
    "time_elapsed": 43566,
    "internal_node_id": "0.0-6.13-1.13"
},
{
    "rt": 198.66499997442588,
    "stimulus": "try to invent new pastries",
    "key_press": 70,
    "trial_type": "html-keyboard-response",
    "trial_index": 39,
    "time_elapsed": 43767,
    "internal_node_id": "0.0-6.14-0.14",
    "modal_type": "irrational",
    "speed": "fast",
    "vignette": "Brian",
    "internal_type": "stimulus",
    "answered": "possible"
},
{
    "rt": null,
    "stimulus": "",
    "key_press": null,
    "trial_type": "html-keyboard-response",
    "trial_index": 40,
    "time_elapsed": 44272,
    "internal_node_id": "0.0-6.14-1.14"
},
{
    "rt": 276.66500001214445,
    "stimulus": "discount food to encourage tipping",
    "key_press": 74,
    "trial_type": "html-keyboard-response",
    "trial_index": 41,
    "time_elapsed": 44550,
    "internal_node_id": "0.0-6.15-0.15",
    "modal_type": "irrational",
    "speed": "fast",
    "vignette": "Brian",
    "internal_type": "stimulus",
    "answered": "impossible"
},
{
    "rt": null,
    "stimulus": "",
    "key_press": null,
    "trial_type": "html-keyboard-response",
    "trial_index": 42,
    "time_elapsed": 45055,
    "internal_node_id": "0.0-6.15-1.15"
},
{
    "rt": 302.62500001117587,
    "stimulus": "turn the cash register invisible",
    "key_press": 70,
    "trial_type": "html-keyboard-response",
    "trial_index": 43,
    "time_elapsed": 45359,
    "internal_node_id": "0.0-6.16-0.16",
    "modal_type": "impossible",
    "speed": "fast",
    "vignette": "Brian",
    "internal_type": "stimulus",
    "answered": "possible"
},
{
    "rt": null,
    "stimulus": "",
    "key_press": null,
    "trial_type": "html-keyboard-response",
    "trial_index": 44,
    "time_elapsed": 45863,
    "internal_node_id": "0.0-6.16-1.16"
},
{
    "rt": 287.62499999720603,
    "stimulus": "use some monopoly money instead",
    "key_press": 74,
    "trial_type": "html-keyboard-response",
    "trial_index": 45,
    "time_elapsed": 46152,
    "internal_node_id": "0.0-6.17-0.17",
    "modal_type": "impossible",
    "speed": "fast",
    "vignette": "Brian",
    "internal_type": "stimulus",
    "answered": "impossible"
},
{
    "rt": null,
    "stimulus": "",
    "key_press": null,
    "trial_type": "html-keyboard-response",
    "trial_index": 46,
    "time_elapsed": 46653,
    "internal_node_id": "0.0-6.17-1.17"
},
{
    "rt": 324.495000008028,
    "stimulus": "take pictures of missing bills",
    "key_press": 70,
    "trial_type": "html-keyboard-response",
    "trial_index": 47,
    "time_elapsed": 46978,
    "internal_node_id": "0.0-6.18-0.18",
    "modal_type": "impossible",
    "speed": "fast",
    "vignette": "Brian",
    "internal_type": "stimulus",
    "answered": "possible"
},
{
    "rt": null,
    "stimulus": "",
    "key_press": null,
    "trial_type": "html-keyboard-response",
    "trial_index": 48,
    "time_elapsed": 47480,
    "internal_node_id": "0.0-6.18-1.18"
},
{
    "rt": 505.29500003904104,
    "stimulus": "get the money by sneezing",
    "key_press": 74,
    "trial_type": "html-keyboard-response",
    "trial_index": 49,
    "time_elapsed": 47987,
    "internal_node_id": "0.0-6.19-0.19",
    "modal_type": "impossible",
    "speed": "fast",
    "vignette": "Brian",
    "internal_type": "stimulus",
    "answered": "impossible"
},
{
    "rt": null,
    "stimulus": "",
    "key_press": null,
    "trial_type": "html-keyboard-response",
    "trial_index": 50,
    "time_elapsed": 48492,
    "internal_node_id": "0.0-6.19-1.19"
},
{
    "rt": 9714.205000025686,
    "responses": "{\"crt_1\":[\"1 cent\"],\"crt_2\":[\"500 minutes\"],\"crt_3\":[\"36 days\"],\"crt_4\":[\"9 days\"],\"crt_5\":[\"1 student\"],\"crt_6\":[\"$30\"],\"crt_7\":[\"has broken even in the stock market.\"]}",
    "question_order": "[0,1,2,3,4,5,6]",
    "internal_type": "crt",
    "trial_type": "survey-multi-select",
    "trial_index": 51,
    "time_elapsed": 58220,
    "internal_node_id": "0.0-7.0"
},
{
    "rt": 20854.29499996826,
    "responses": "{\"bai_1\":[\"Moderately – it wasn’t pleasant at times\"],\"bai_2\":[\"Moderately – it wasn’t pleasant at times\"],\"bai_3\":[\"Moderately – it wasn’t pleasant at times\"],\"bai_4\":[\"Moderately – it wasn’t pleasant at times\"],\"bai_5\":[\"Moderately – it wasn’t pleasant at times\"],\"bai_6\":[\"Moderately – it wasn’t pleasant at times\"],\"bai_7\":[\"Moderately – it wasn’t pleasant at times\"],\"bai_8\":[\"Moderately – it wasn’t pleasant at times\"],\"bai_9\":[\"Moderately – it wasn’t pleasant at times\"],\"bai_10\":[\"Moderately – it wasn’t pleasant at times\"],\"bai_11\":[\"Moderately – it wasn’t pleasant at times\"],\"bai_12\":[\"Moderately – it wasn’t pleasant at times\"],\"bai_13\":[\"Moderately – it wasn’t pleasant at times\"],\"bai_14\":[\"Moderately – it wasn’t pleasant at times\"],\"bai_15\":[\"Moderately – it wasn’t pleasant at times\"],\"bai_16\":[\"Moderately – it wasn’t pleasant at times\"],\"bai_17\":[\"Moderately – it wasn’t pleasant at times\"],\"bai_18\":[\"Moderately – it wasn’t pleasant at times\"],\"bai_19\":[\"Moderately – it wasn’t pleasant at times\"],\"bai_20\":[\"Moderately – it wasn’t pleasant at times\"],\"bai_21\":[\"Moderately – it wasn’t pleasant at times\"]}",
    "question_order": "[0,1,2,3,4,5,6,7,8,9,10,11,12,13,14,15,16,17,18,19,20]",
    "internal_type": "bai",
    "trial_type": "survey-multi-select",
    "trial_index": 52,
    "time_elapsed": 79111,
    "internal_node_id": "0.0-8.0"
},
{
    "rt": 25355.83499999484,
    "responses": "{\"bdi_1\":[\"1 -- I feel sad much of the time.\"],\"bdi_2\":[\"1 -- I feel more discouraged about my future than I used to be.\"],\"bdi_3\":[\"1 -- I feel more discouraged about my future than I used to\"],\"bdi_4\":[\"3 -- I can't get any pleasure from the things I used to enjoy.\"],\"bdi_5\":[\"1 -- I feel guilty over many things I have done or should have done.\"],\"bdi_6\":[\"1 -- I feel I may be punished.\"],\"bdi_7\":[\"1 -- I have lost confidence in myself.\"],\"bdi_8\":[\"1 -- I am more critical of myself than I used to be.\"],\"bdi_10\":[\"1 -- I cry more than I used to.\"],\"bdi_11\":[\"1 -- I feel more restless or wound up than usual.\"],\"bdi_12\":[\"1 -- I am less interested in other people or things than before.\"],\"bdi_13\":[\"1 -- I find it more difficult to make decisions than usual.\"],\"bdi_14\":[\"1 -- I don't consider myself as worthwhile and useful as I used to.\"],\"bdi_15\":[\"1 -- I have less energy than I used to have.\"],\"bdi_16\":[\"2b -- I sleep a lot less than usual.\"],\"bdi_17\":[\"1 -- I am more irritable than usual.\"],\"bdi_18\":[\"2a -- My appetite is much less than before.\"],\"bdi_19\":[\"1 -- I can't concentrate as well as usual.\"],\"bdi_20\":[\"1 -- I get more tired or fatigued more easily than usual.\"],\"bdi_21\":[\"3 -- I have lost interest in sex completely.\"]}",
    "question_order": "[0,1,2,3,4,5,6,7,8,9,10,11,12,13,14,15,16,17,18,19]",
    "internal_type": "bdi",
    "trial_type": "survey-multi-select",
    "trial_index": 53,
    "time_elapsed": 104500,
    "internal_node_id": "0.0-9.0"
},
{
    "rt": 1707.5000000186265,
    "stimulus": "<p>You responded correctly on NaN% of the trials.</p><p>Your average response time was NaNms.</p><p>Press any key to complete the experiment. Thank you!</p>",
    "key_press": 32,
    "trial_type": "html-keyboard-response",
    "trial_index": 54,
    "time_elapsed": 106214,
    "internal_node_id": "0.;0-10.0"
}
]
