[
	{
		"rt": 9696.134999998321,
		"stimulus": "<DIV align='left'><div>&nbsp;</div><div>Please consider this information carefully before deciding whether to participate in this research.</div><div>&nbsp;</div><div>The purpose of this research is to examine which factors influence social judgment and decision-</div><div>making. You will be asked to make judgements about individuals and actions in social scenarios.</div><div>We are simply interested in your judgement. The study will take less than 1 hour to complete,</div><div>and you will receive less than $20 on Amazon Mechanical Turk. Your compensation and time</div><div>commitment are specified in the study description. There are no anticipated risks associated with</div><div>participating in this study. The effects of participating should be comparable to those you would</div><div>ordinarily experience from viewing a computer monitor and using a mouse or keyboard for a</div><div>similar amount of time. At the end of the study, we will provide an explanation of the questions</div><div>that motivate this line of research and will describe the potential implications.</div><div>&nbsp;</div><div>Your participation in this study is completely voluntary and you may refuse to participate or you</div><div>may choose to withdraw at any time without penalty or loss of benefits to you which are</div><div>otherwise entitled. Your participation in this study will remain confidential. No personally</div><div>identifiable information will be associated with your data. Also, all analyses of the data will be</div><div>averaged across all the participants, so your individual responses will never be specifically</div><div>analyzed.</div><div>&nbsp;</div><div>If you have questions or concerns about your participation or payment, or want to request a</div><div>summary of research findings, please contact Dr. Jonathan Phillips at</div><div><a href=mailto:Jonathan.S.Phillips@dartmouth.edu>Jonathan.S.Phillips@dartmouth.edu</a>.</div><div>&nbsp;</div><div>Please save a copy of this form for your records.</div><div>&nbsp;</div></DIV><div>Agreement:</div><DIV align='left'><div>The nature and purpose of this research have been sufficiently explained and I agree to</div><div>participate in this study. I understand that I am free to withdraw at any time without incurring</div><div>any penalty. Please consent by clicking the button below to continue. Otherwise, please exit the</div><div>study at any time.</div><div>&nbsp;</div></DIV>",
		"button_pressed": "0",
		"internal_type": "consent",
		"trial_type": "html-button-response",
		"trial_index": 0,
		"time_elapsed": 9703,
		"internal_node_id": "0.0-0.0"
	},
	{
		"rt": 42521.15500000218,
		"responses": "{\"Q0\":\"1\",\"Q1\":\"left\",\"Q2\":\"eng\",\"Q3\":\"american\",\"Q4\":\"usa\",\"Q5\":\"male\",\"Q6\":\"phd\",\"Q7\":\"J778\"}",
		"internal_type": "participant_info",
		"trial_type": "survey-text",
		"trial_index": 1,
		"time_elapsed": 52234,
		"internal_node_id": "0.0-1.0"
	},
	{
		"rt": 2681.940000002214,
		"stimulus": "<h2> Instructions</h2><p>In this study, we'd like you to make judgments about whether something is possible or impossible. To indicate that something is possible, please press the [f] key; to indicate that something is impossible, please press the [j] key. To get you used to this, you will first go through a warm-up phase. On these trials, press [f] if you see the word 'Possible' and [j] if you see the word 'Impossible.'' ***Please take your time and answer as correctly as possible.*** </p><p>Press any key to continue</p>",
		"key_press": 32,
		"trial_type": "html-keyboard-response",
		"trial_index": 2,
		"time_elapsed": 54920,
		"internal_node_id": "0.0-2.0"
	},
	{
		"rt": 3260.6900000027963,
		"correct": true,
		"stimulus": "Possible",
		"key_press": 70,
		"trial_type": "categorize-html",
		"trial_index": 3,
		"time_elapsed": 60194,
		"internal_node_id": "0.0-3.0-0.0"
	},
	{
		"rt": 1723.5000000000582,
		"correct": true,
		"stimulus": "Impossible",
		"key_press": 74,
		"trial_type": "categorize-html",
		"trial_index": 4,
		"time_elapsed": 63922,
		"internal_node_id": "0.0-3.0-0.1"
	},
	{
		"rt": 406.0700000045472,
		"correct": true,
		"stimulus": "Impossible",
		"key_press": 74,
		"trial_type": "categorize-html",
		"trial_index": 5,
		"time_elapsed": 66332,
		"internal_node_id": "0.0-3.0-0.2"
	},
	{
		"rt": 7970.240000002377,
		"correct": true,
		"stimulus": "Possible",
		"key_press": 70,
		"trial_type": "categorize-html",
		"trial_index": 6,
		"time_elapsed": 76308,
		"internal_node_id": "0.0-3.0-0.3"
	},
	{
		"rt": 478.9099999979953,
		"correct": true,
		"stimulus": "Possible",
		"key_press": 70,
		"trial_type": "categorize-html",
		"trial_index": 7,
		"time_elapsed": 78791,
		"internal_node_id": "0.0-3.0-0.4"
	},
	{
		"rt": 1381.9900000016787,
		"correct": true,
		"stimulus": "Impossible",
		"key_press": 74,
		"trial_type": "categorize-html",
		"trial_index": 8,
		"time_elapsed": 82180,
		"internal_node_id": "0.0-3.0-0.5"
	},
	{
		"rt": 1374.3050000048243,
		"correct": true,
		"stimulus": "Possible",
		"key_press": 70,
		"trial_type": "categorize-html",
		"trial_index": 9,
		"time_elapsed": 85556,
		"internal_node_id": "0.0-3.0-0.6"
	},
	{
		"rt": 505.1099999982398,
		"correct": true,
		"stimulus": "Impossible",
		"key_press": 74,
		"trial_type": "categorize-html",
		"trial_index": 10,
		"time_elapsed": 88068,
		"internal_node_id": "0.0-3.0-0.7"
	},
	{
		"rt": 666.655000000901,
		"correct": true,
		"stimulus": "Possible",
		"key_press": 70,
		"trial_type": "categorize-html",
		"trial_index": 11,
		"time_elapsed": 90740,
		"internal_node_id": "0.0-3.0-0.8"
	},
	{
		"rt": 503.2800000044517,
		"correct": true,
		"stimulus": "Impossible",
		"key_press": 74,
		"trial_type": "categorize-html",
		"trial_index": 12,
		"time_elapsed": 93251,
		"internal_node_id": "0.0-3.0-0.9"
	},
	{
		"rt": 400.15500000299653,
		"correct": true,
		"stimulus": "Impossible",
		"key_press": 74,
		"trial_type": "categorize-html",
		"trial_index": 13,
		"time_elapsed": 95653,
		"internal_node_id": "0.0-3.0-0.10"
	},
	{
		"rt": 531.3650000025518,
		"correct": true,
		"stimulus": "Possible",
		"key_press": 70,
		"trial_type": "categorize-html",
		"trial_index": 14,
		"time_elapsed": 98191,
		"internal_node_id": "0.0-3.0-0.11"
	},
	{
		"rt": 495.9350000062841,
		"correct": true,
		"stimulus": "Impossible",
		"key_press": 74,
		"trial_type": "categorize-html",
		"trial_index": 15,
		"time_elapsed": 100693,
		"internal_node_id": "0.0-3.0-0.12"
	},
	{
		"rt": 512.0549999992363,
		"correct": true,
		"stimulus": "Possible",
		"key_press": 70,
		"trial_type": "categorize-html",
		"trial_index": 16,
		"time_elapsed": 103212,
		"internal_node_id": "0.0-3.0-0.13"
	},
	{
		"rt": 395.4599999997299,
		"correct": true,
		"stimulus": "Impossible",
		"key_press": 74,
		"trial_type": "categorize-html",
		"trial_index": 17,
		"time_elapsed": 105614,
		"internal_node_id": "0.0-3.0-0.14"
	},
	{
		"rt": 594.7750000050291,
		"correct": true,
		"stimulus": "Possible",
		"key_press": 70,
		"trial_type": "categorize-html",
		"trial_index": 18,
		"time_elapsed": 108216,
		"internal_node_id": "0.0-3.0-0.15"
	},
	{
		"rt": 723.470000004454,
		"correct": true,
		"stimulus": "Possible",
		"key_press": 70,
		"trial_type": "categorize-html",
		"trial_index": 19,
		"time_elapsed": 110941,
		"internal_node_id": "0.0-3.0-0.16"
	},
	{
		"rt": 407.76000000187196,
		"correct": true,
		"stimulus": "Impossible",
		"key_press": 74,
		"trial_type": "categorize-html",
		"trial_index": 20,
		"time_elapsed": 113352,
		"internal_node_id": "0.0-3.0-0.17"
	},
	{
		"rt": 503.01500000205124,
		"correct": true,
		"stimulus": "Possible",
		"key_press": 70,
		"trial_type": "categorize-html",
		"trial_index": 21,
		"time_elapsed": 115859,
		"internal_node_id": "0.0-3.0-0.18"
	},
	{
		"rt": 550.6850000019767,
		"correct": true,
		"stimulus": "Impossible",
		"key_press": 74,
		"trial_type": "categorize-html",
		"trial_index": 22,
		"time_elapsed": 118412,
		"internal_node_id": "0.0-3.0-0.19"
	},
	{
		"rt": 1974.7599999973318,
		"stimulus": "<h2>In this part, you will read a story and then will be judging whether certain events are possible or impossible.</h2> <p>Press any key to continue</p>",
		"key_press": 32,
		"trial_type": "html-keyboard-response",
		"trial_index": 23,
		"time_elapsed": 120388,
		"internal_node_id": "0.0-4.0"
	},
	{
		"view_history": "[{\"page_index\":0,\"viewing_time\":2030.3149999963352},{\"page_index\":1,\"viewing_time\":1272.3650000043563}]",
		"rt": 3303.0949999956647,
		"internal_type": "instructions",
		"trial_type": "instructions",
		"trial_index": 24,
		"time_elapsed": 123695,
		"internal_node_id": "0.0-5.0"
	},
	{
		"rt": 942.81499999488,
		"stimulus": "be given the money by a turtle",
		"key_press": 74,
		"trial_type": "html-keyboard-response",
		"trial_index": 25,
		"time_elapsed": 124639,
		"internal_node_id": "0.0-6.0-0.0",
		"modal_type": "impossible",
		"speed": "slow",
		"vignette": "Heinz",
		"internal_type": "stimulus",
		"answered": "impossible"
	},
	{
		"rt": null,
		"stimulus": "",
		"key_press": null,
		"trial_type": "html-keyboard-response",
		"trial_index": 26,
		"time_elapsed": 125144,
		"internal_node_id": "0.0-6.0-1.0"
	},
	{
		"rt": 446.3499999983469,
		"stimulus": "make the money time traveling",
		"key_press": 74,
		"trial_type": "html-keyboard-response",
		"trial_index": 27,
		"time_elapsed": 125592,
		"internal_node_id": "0.0-6.1-0.1",
		"modal_type": "impossible",
		"speed": "slow",
		"vignette": "Heinz",
		"internal_type": "stimulus",
		"answered": "impossible"
	},
	{
		"rt": null,
		"stimulus": "",
		"key_press": null,
		"trial_type": "html-keyboard-response",
		"trial_index": 28,
		"time_elapsed": 126097,
		"internal_node_id": "0.0-6.1-1.1"
	},
	{
		"rt": 328.8899999970454,
		"stimulus": "grow the money on a tree",
		"key_press": 74,
		"trial_type": "html-keyboard-response",
		"trial_index": 29,
		"time_elapsed": 126427,
		"internal_node_id": "0.0-6.2-0.2",
		"modal_type": "impossible",
		"speed": "slow",
		"vignette": "Heinz",
		"internal_type": "stimulus",
		"answered": "impossible"
	},
	{
		"rt": null,
		"stimulus": "",
		"key_press": null,
		"trial_type": "html-keyboard-response",
		"trial_index": 30,
		"time_elapsed": 126932,
		"internal_node_id": "0.0-6.2-1.2"
	},
	{
		"rt": 317.6400000011199,
		"stimulus": "get the money by clapping",
		"key_press": 74,
		"trial_type": "html-keyboard-response",
		"trial_index": 31,
		"time_elapsed": 127250,
		"internal_node_id": "0.0-6.3-0.3",
		"modal_type": "impossible",
		"speed": "slow",
		"vignette": "Heinz",
		"internal_type": "stimulus",
		"answered": "impossible"
	},
	{
		"rt": null,
		"stimulus": "",
		"key_press": null,
		"trial_type": "html-keyboard-response",
		"trial_index": 32,
		"time_elapsed": 127756,
		"internal_node_id": "0.0-6.3-1.3"
	},
	{
		"rt": 237.0149999987916,
		"stimulus": "sell his own medication",
		"key_press": 74,
		"trial_type": "html-keyboard-response",
		"trial_index": 33,
		"time_elapsed": 127994,
		"internal_node_id": "0.0-6.4-0.4",
		"modal_type": "irrational",
		"speed": "slow",
		"vignette": "Heinz",
		"internal_type": "stimulus",
		"answered": "impossible"
	},
	{
		"rt": null,
		"stimulus": "",
		"key_press": null,
		"trial_type": "html-keyboard-response",
		"trial_index": 34,
		"time_elapsed": 128499,
		"internal_node_id": "0.0-6.4-1.4"
	},
	{
		"rt": 243.12500000087311,
		"stimulus": "sell all his clothes for money",
		"key_press": 74,
		"trial_type": "html-keyboard-response",
		"trial_index": 35,
		"time_elapsed": 128743,
		"internal_node_id": "0.0-6.5-0.5",
		"modal_type": "irrational",
		"speed": "slow",
		"vignette": "Heinz",
		"internal_type": "stimulus",
		"answered": "impossible"
	},
	{
		"rt": null,
		"stimulus": "",
		"key_press": null,
		"trial_type": "html-keyboard-response",
		"trial_index": 36,
		"time_elapsed": 129245,
		"internal_node_id": "0.0-6.5-1.5"
	},
	{
		"rt": 208.68000000336906,
		"stimulus": "go on strike until wages increase",
		"key_press": 74,
		"trial_type": "html-keyboard-response",
		"trial_index": 37,
		"time_elapsed": 129455,
		"internal_node_id": "0.0-6.6-0.6",
		"modal_type": "irrational",
		"speed": "slow",
		"vignette": "Heinz",
		"internal_type": "stimulus",
		"answered": "impossible"
	},
	{
		"rt": null,
		"stimulus": "",
		"key_press": null,
		"trial_type": "html-keyboard-response",
		"trial_index": 38,
		"time_elapsed": 129960,
		"internal_node_id": "0.0-6.6-1.6"
	},
	{
		"rt": 226.82000000349944,
		"stimulus": "try other medicines at random",
		"key_press": 74,
		"trial_type": "html-keyboard-response",
		"trial_index": 39,
		"time_elapsed": 130187,
		"internal_node_id": "0.0-6.7-0.7",
		"modal_type": "irrational",
		"speed": "slow",
		"vignette": "Heinz",
		"internal_type": "stimulus",
		"answered": "impossible"
	},
	{
		"rt": null,
		"stimulus": "",
		"key_press": null,
		"trial_type": "html-keyboard-response",
		"trial_index": 40,
		"time_elapsed": 130688,
		"internal_node_id": "0.0-6.7-1.7"
	},
	{
		"rt": 227.18000000168104,
		"stimulus": "use a generic medication instead",
		"key_press": 74,
		"trial_type": "html-keyboard-response",
		"trial_index": 41,
		"time_elapsed": 130917,
		"internal_node_id": "0.0-6.8-0.8",
		"modal_type": "possible",
		"speed": "slow",
		"vignette": "Heinz",
		"internal_type": "stimulus",
		"answered": "impossible"
	},
	{
		"rt": null,
		"stimulus": "",
		"key_press": null,
		"trial_type": "html-keyboard-response",
		"trial_index": 42,
		"time_elapsed": 131418,
		"internal_node_id": "0.0-6.8-1.8"
	},
	{
		"rt": 259.0200000049663,
		"stimulus": "buy a different insurance plan",
		"key_press": 74,
		"trial_type": "html-keyboard-response",
		"trial_index": 43,
		"time_elapsed": 131678,
		"internal_node_id": "0.0-6.9-0.9",
		"modal_type": "possible",
		"speed": "slow",
		"vignette": "Heinz",
		"internal_type": "stimulus",
		"answered": "impossible"
	},
	{
		"rt": null,
		"stimulus": "",
		"key_press": null,
		"trial_type": "html-keyboard-response",
		"trial_index": 44,
		"time_elapsed": 132183,
		"internal_node_id": "0.0-6.9-1.9"
	},
	{
		"rt": null,
		"stimulus": "enroll in federal healthcare",
		"key_press": null,
		"trial_type": "html-keyboard-response",
		"trial_index": 45,
		"time_elapsed": 136689,
		"internal_node_id": "0.0-6.10-0.10",
		"modal_type": "possible",
		"speed": "slow",
		"vignette": "Heinz",
		"internal_type": "stimulus",
		"answered": "NA"
	},
	{
		"rt": null,
		"stimulus": "",
		"key_press": null,
		"trial_type": "html-keyboard-response",
		"trial_index": 46,
		"time_elapsed": 137191,
		"internal_node_id": "0.0-6.10-1.10"
	},
	{
		"rt": 457.7699999936158,
		"stimulus": "borrow the money from a bank",
		"key_press": 70,
		"trial_type": "html-keyboard-response",
		"trial_index": 47,
		"time_elapsed": 137650,
		"internal_node_id": "0.0-6.11-0.11",
		"modal_type": "possible",
		"speed": "slow",
		"vignette": "Heinz",
		"internal_type": "stimulus",
		"answered": "possible"
	},
	{
		"rt": null,
		"stimulus": "",
		"key_press": null,
		"trial_type": "html-keyboard-response",
		"trial_index": 48,
		"time_elapsed": 138155,
		"internal_node_id": "0.0-6.11-1.11"
	},
	{
		"rt": 258.8900000046124,
		"stimulus": "be given the medicine by a doctor",
		"key_press": 70,
		"trial_type": "html-keyboard-response",
		"trial_index": 49,
		"time_elapsed": 138415,
		"internal_node_id": "0.0-6.12-0.12",
		"modal_type": "improbable",
		"speed": "slow",
		"vignette": "Heinz",
		"internal_type": "stimulus",
		"answered": "possible"
	},
	{
		"rt": null,
		"stimulus": "",
		"key_press": null,
		"trial_type": "html-keyboard-response",
		"trial_index": 50,
		"time_elapsed": 138922,
		"internal_node_id": "0.0-6.12-1.12"
	},
	{
		"rt": 157.6500000010128,
		"stimulus": "inherit money from a close relative",
		"key_press": 70,
		"trial_type": "html-keyboard-response",
		"trial_index": 51,
		"time_elapsed": 139081,
		"internal_node_id": "0.0-6.13-0.13",
		"modal_type": "improbable",
		"speed": "slow",
		"vignette": "Heinz",
		"internal_type": "stimulus",
		"answered": "possible"
	},
	{
		"rt": null,
		"stimulus": "",
		"key_press": null,
		"trial_type": "html-keyboard-response",
		"trial_index": 52,
		"time_elapsed": 139581,
		"internal_node_id": "0.0-6.13-1.13"
	},
	{
		"rt": 154.98500000103377,
		"stimulus": "receive the money from a stranger",
		"key_press": 70,
		"trial_type": "html-keyboard-response",
		"trial_index": 53,
		"time_elapsed": 139737,
		"internal_node_id": "0.0-6.14-0.14",
		"modal_type": "improbable",
		"speed": "slow",
		"vignette": "Heinz",
		"internal_type": "stimulus",
		"answered": "possible"
	},
	{
		"rt": null,
		"stimulus": "",
		"key_press": null,
		"trial_type": "html-keyboard-response",
		"trial_index": 54,
		"time_elapsed": 140242,
		"internal_node_id": "0.0-6.14-1.14"
	},
	{
		"rt": 146.96000000549247,
		"stimulus": "discover a cheap new medicine",
		"key_press": 70,
		"trial_type": "html-keyboard-response",
		"trial_index": 55,
		"time_elapsed": 140390,
		"internal_node_id": "0.0-6.15-0.15",
		"modal_type": "improbable",
		"speed": "slow",
		"vignette": "Heinz",
		"internal_type": "stimulus",
		"answered": "possible"
	},
	{
		"rt": null,
		"stimulus": "",
		"key_press": null,
		"trial_type": "html-keyboard-response",
		"trial_index": 56,
		"time_elapsed": 140895,
		"internal_node_id": "0.0-6.15-1.15"
	},
	{
		"rt": 140.43499999388587,
		"stimulus": "steal the money from his work",
		"key_press": 70,
		"trial_type": "html-keyboard-response",
		"trial_index": 57,
		"time_elapsed": 141037,
		"internal_node_id": "0.0-6.16-0.16",
		"modal_type": "immoral",
		"speed": "slow",
		"vignette": "Heinz",
		"internal_type": "stimulus",
		"answered": "possible"
	},
	{
		"rt": null,
		"stimulus": "",
		"key_press": null,
		"trial_type": "html-keyboard-response",
		"trial_index": 58,
		"time_elapsed": 141537,
		"internal_node_id": "0.0-6.16-1.16"
	},
	{
		"rt": 117.71500000031665,
		"stimulus": "blackmail someone for the money",
		"key_press": 70,
		"trial_type": "html-keyboard-response",
		"trial_index": 59,
		"time_elapsed": 141656,
		"internal_node_id": "0.0-6.17-0.17",
		"modal_type": "immoral",
		"speed": "slow",
		"vignette": "Heinz",
		"internal_type": "stimulus",
		"answered": "possible"
	},
	{
		"rt": null,
		"stimulus": "",
		"key_press": null,
		"trial_type": "html-keyboard-response",
		"trial_index": 60,
		"time_elapsed": 142161,
		"internal_node_id": "0.0-6.17-1.17"
	},
	{
		"rt": 144.029999995837,
		"stimulus": "commit credit card fraud",
		"key_press": 70,
		"trial_type": "html-keyboard-response",
		"trial_index": 61,
		"time_elapsed": 142306,
		"internal_node_id": "0.0-6.18-0.18",
		"modal_type": "immoral",
		"speed": "slow",
		"vignette": "Heinz",
		"internal_type": "stimulus",
		"answered": "possible"
	},
	{
		"rt": null,
		"stimulus": "",
		"key_press": null,
		"trial_type": "html-keyboard-response",
		"trial_index": 62,
		"time_elapsed": 142812,
		"internal_node_id": "0.0-6.18-1.18"
	},
	{
		"rt": 200.59500000206754,
		"stimulus": "get the medicine by stealing",
		"key_press": 70,
		"trial_type": "html-keyboard-response",
		"trial_index": 63,
		"time_elapsed": 143013,
		"internal_node_id": "0.0-6.19-0.19",
		"modal_type": "immoral",
		"speed": "slow",
		"vignette": "Heinz",
		"internal_type": "stimulus",
		"answered": "possible"
	},
	{
		"rt": null,
		"stimulus": "",
		"key_press": null,
		"trial_type": "html-keyboard-response",
		"trial_index": 64,
		"time_elapsed": 143518,
		"internal_node_id": "0.0-6.19-1.19"
	},
	{
		"view_history": "[{\"page_index\":0,\"viewing_time\":852.6100000017323},{\"page_index\":1,\"viewing_time\":817.7849999992759}]",
		"rt": 1670.6899999990128,
		"internal_type": "instructions",
		"trial_type": "instructions",
		"trial_index": 65,
		"time_elapsed": 145192,
		"internal_node_id": "0.0-7.0"
	},
	{
		"rt": null,
		"stimulus": "have her homework teleported",
		"key_press": null,
		"trial_type": "html-keyboard-response",
		"trial_index": 66,
		"time_elapsed": 149693,
		"internal_node_id": "0.0-8.0-0.0",
		"modal_type": "impossible",
		"speed": "slow",
		"vignette": "Mary",
		"internal_type": "stimulus",
		"answered": "NA"
	},
	{
		"rt": null,
		"stimulus": "",
		"key_press": null,
		"trial_type": "html-keyboard-response",
		"trial_index": 67,
		"time_elapsed": 150197,
		"internal_node_id": "0.0-8.0-1.0"
	},
	{
		"rt": 338.7250000014319,
		"stimulus": "remind herself yesterday evening",
		"key_press": 70,
		"trial_type": "html-keyboard-response",
		"trial_index": 68,
		"time_elapsed": 150537,
		"internal_node_id": "0.0-8.1-0.1",
		"modal_type": "impossible",
		"speed": "slow",
		"vignette": "Mary",
		"internal_type": "stimulus",
		"answered": "possible"
	},
	{
		"rt": null,
		"stimulus": "",
		"key_press": null,
		"trial_type": "html-keyboard-response",
		"trial_index": 69,
		"time_elapsed": 151042,
		"internal_node_id": "0.0-8.1-1.1"
	},
	{
		"rt": 185.2699999944889,
		"stimulus": "turn in several socks instead",
		"key_press": 70,
		"trial_type": "html-keyboard-response",
		"trial_index": 70,
		"time_elapsed": 151231,
		"internal_node_id": "0.0-8.2-0.2",
		"modal_type": "impossible",
		"speed": "slow",
		"vignette": "Mary",
		"internal_type": "stimulus",
		"answered": "possible"
	},
	{
		"rt": null,
		"stimulus": "",
		"key_press": null,
		"trial_type": "html-keyboard-response",
		"trial_index": 71,
		"time_elapsed": 151736,
		"internal_node_id": "0.0-8.2-1.2"
	},
	{
		"rt": 181.77499999728752,
		"stimulus": "erase the teacher's memory",
		"key_press": 70,
		"trial_type": "html-keyboard-response",
		"trial_index": 72,
		"time_elapsed": 151919,
		"internal_node_id": "0.0-8.3-0.3",
		"modal_type": "impossible",
		"speed": "slow",
		"vignette": "Mary",
		"internal_type": "stimulus",
		"answered": "possible"
	},
	{
		"rt": null,
		"stimulus": "",
		"key_press": null,
		"trial_type": "html-keyboard-response",
		"trial_index": 73,
		"time_elapsed": 152420,
		"internal_node_id": "0.0-8.3-1.3"
	},
	{
		"rt": 211.2249999991036,
		"stimulus": "quickly copy someone's homework",
		"key_press": 70,
		"trial_type": "html-keyboard-response",
		"trial_index": 74,
		"time_elapsed": 152632,
		"internal_node_id": "0.0-8.4-0.4",
		"modal_type": "immoral",
		"speed": "slow",
		"vignette": "Mary",
		"internal_type": "stimulus",
		"answered": "possible"
	},
	{
		"rt": null,
		"stimulus": "",
		"key_press": null,
		"trial_type": "html-keyboard-response",
		"trial_index": 75,
		"time_elapsed": 153133,
		"internal_node_id": "0.0-8.4-1.4"
	},
	{
		"rt": 226.14499999326654,
		"stimulus": "put her name on a friend's homework",
		"key_press": 70,
		"trial_type": "html-keyboard-response",
		"trial_index": 76,
		"time_elapsed": 153360,
		"internal_node_id": "0.0-8.5-0.5",
		"modal_type": "immoral",
		"speed": "slow",
		"vignette": "Mary",
		"internal_type": "stimulus",
		"answered": "possible"
	},
	{
		"rt": null,
		"stimulus": "",
		"key_press": null,
		"trial_type": "html-keyboard-response",
		"trial_index": 77,
		"time_elapsed": 153861,
		"internal_node_id": "0.0-8.5-1.5"
	},
	{
		"rt": 170.79000000376254,
		"stimulus": "forge an excuse note",
		"key_press": 70,
		"trial_type": "html-keyboard-response",
		"trial_index": 78,
		"time_elapsed": 154033,
		"internal_node_id": "0.0-8.6-0.6",
		"modal_type": "immoral",
		"speed": "slow",
		"vignette": "Mary",
		"internal_type": "stimulus",
		"answered": "possible"
	},
	{
		"rt": null,
		"stimulus": "",
		"key_press": null,
		"trial_type": "html-keyboard-response",
		"trial_index": 79,
		"time_elapsed": 154538,
		"internal_node_id": "0.0-8.6-1.6"
	},
	{
		"rt": 155.87499999674037,
		"stimulus": "lie about being sick to go home",
		"key_press": 70,
		"trial_type": "html-keyboard-response",
		"trial_index": 80,
		"time_elapsed": 154695,
		"internal_node_id": "0.0-8.7-0.7",
		"modal_type": "immoral",
		"speed": "slow",
		"vignette": "Mary",
		"internal_type": "stimulus",
		"answered": "possible"
	},
	{
		"rt": null,
		"stimulus": "",
		"key_press": null,
		"trial_type": "html-keyboard-response",
		"trial_index": 81,
		"time_elapsed": 155196,
		"internal_node_id": "0.0-8.7-1.7"
	},
	{
		"rt": 161.5749999982654,
		"stimulus": "run home to get her homework",
		"key_press": 70,
		"trial_type": "html-keyboard-response",
		"trial_index": 82,
		"time_elapsed": 155359,
		"internal_node_id": "0.0-8.8-0.8",
		"modal_type": "possible",
		"speed": "slow",
		"vignette": "Mary",
		"internal_type": "stimulus",
		"answered": "possible"
	},
	{
		"rt": null,
		"stimulus": "",
		"key_press": null,
		"trial_type": "html-keyboard-response",
		"trial_index": 83,
		"time_elapsed": 155864,
		"internal_node_id": "0.0-8.8-1.8"
	},
	{
		"rt": 149.5100000029197,
		"stimulus": "bring in her homework tomorrow",
		"key_press": 70,
		"trial_type": "html-keyboard-response",
		"trial_index": 84,
		"time_elapsed": 156014,
		"internal_node_id": "0.0-8.9-0.9",
		"modal_type": "possible",
		"speed": "slow",
		"vignette": "Mary",
		"internal_type": "stimulus",
		"answered": "possible"
	},
	{
		"rt": null,
		"stimulus": "",
		"key_press": null,
		"trial_type": "html-keyboard-response",
		"trial_index": 85,
		"time_elapsed": 156519,
		"internal_node_id": "0.0-8.9-1.9"
	},
	{
		"rt": 282.59000000252854,
		"stimulus": "explain what happened to her teacher",
		"key_press": 74,
		"trial_type": "html-keyboard-response",
		"trial_index": 86,
		"time_elapsed": 156803,
		"internal_node_id": "0.0-8.10-0.10",
		"modal_type": "possible",
		"speed": "slow",
		"vignette": "Mary",
		"internal_type": "stimulus",
		"answered": "impossible"
	},
	{
		"rt": null,
		"stimulus": "",
		"key_press": null,
		"trial_type": "html-keyboard-response",
		"trial_index": 87,
		"time_elapsed": 157306,
		"internal_node_id": "0.0-8.10-1.10"
	},
	{
		"rt": 190.51999999646796,
		"stimulus": "quickly redo the homework assignment",
		"key_press": 74,
		"trial_type": "html-keyboard-response",
		"trial_index": 88,
		"time_elapsed": 157498,
		"internal_node_id": "0.0-8.11-0.11",
		"modal_type": "possible",
		"speed": "slow",
		"vignette": "Mary",
		"internal_type": "stimulus",
		"answered": "impossible"
	},
	{
		"rt": null,
		"stimulus": "",
		"key_press": null,
		"trial_type": "html-keyboard-response",
		"trial_index": 89,
		"time_elapsed": 158003,
		"internal_node_id": "0.0-8.11-1.11"
	},
	{
		"rt": 175.10500000207685,
		"stimulus": "discover her teacher is absent",
		"key_press": 74,
		"trial_type": "html-keyboard-response",
		"trial_index": 90,
		"time_elapsed": 158179,
		"internal_node_id": "0.0-8.12-0.12",
		"modal_type": "improbable",
		"speed": "slow",
		"vignette": "Mary",
		"internal_type": "stimulus",
		"answered": "impossible"
	},
	{
		"rt": null,
		"stimulus": "",
		"key_press": null,
		"trial_type": "html-keyboard-response",
		"trial_index": 91,
		"time_elapsed": 158684,
		"internal_node_id": "0.0-8.12-1.12"
	},
	{
		"rt": 183.96999999822583,
		"stimulus": "learn school is canceled today",
		"key_press": 74,
		"trial_type": "html-keyboard-response",
		"trial_index": 92,
		"time_elapsed": 158869,
		"internal_node_id": "0.0-8.13-0.13",
		"modal_type": "improbable",
		"speed": "slow",
		"vignette": "Mary",
		"internal_type": "stimulus",
		"answered": "impossible"
	},
	{
		"rt": null,
		"stimulus": "",
		"key_press": null,
		"trial_type": "html-keyboard-response",
		"trial_index": 93,
		"time_elapsed": 159374,
		"internal_node_id": "0.0-8.13-1.13"
	},
	{
		"rt": 250.75500000093598,
		"stimulus": "remember she has an extra copy",
		"key_press": 74,
		"trial_type": "html-keyboard-response",
		"trial_index": 94,
		"time_elapsed": 159626,
		"internal_node_id": "0.0-8.14-0.14",
		"modal_type": "improbable",
		"speed": "slow",
		"vignette": "Mary",
		"internal_type": "stimulus",
		"answered": "impossible"
	},
	{
		"rt": null,
		"stimulus": "",
		"key_press": null,
		"trial_type": "html-keyboard-response",
		"trial_index": 95,
		"time_elapsed": 160131,
		"internal_node_id": "0.0-8.14-1.14"
	},
	{
		"rt": 235.02000000007683,
		"stimulus": "be given an A by mistake",
		"key_press": 74,
		"trial_type": "html-keyboard-response",
		"trial_index": 96,
		"time_elapsed": 160367,
		"internal_node_id": "0.0-8.15-0.15",
		"modal_type": "improbable",
		"speed": "slow",
		"vignette": "Mary",
		"internal_type": "stimulus",
		"answered": "impossible"
	},
	{
		"rt": null,
		"stimulus": "",
		"key_press": null,
		"trial_type": "html-keyboard-response",
		"trial_index": 97,
		"time_elapsed": 160872,
		"internal_node_id": "0.0-8.15-1.15"
	},
	{
		"rt": 160.57999999611638,
		"stimulus": "ask her mom to FedEx the homework",
		"key_press": 74,
		"trial_type": "html-keyboard-response",
		"trial_index": 98,
		"time_elapsed": 161034,
		"internal_node_id": "0.0-8.16-0.16",
		"modal_type": "irrational",
		"speed": "slow",
		"vignette": "Mary",
		"internal_type": "stimulus",
		"answered": "impossible"
	},
	{
		"rt": null,
		"stimulus": "",
		"key_press": null,
		"trial_type": "html-keyboard-response",
		"trial_index": 99,
		"time_elapsed": 161539,
		"internal_node_id": "0.0-8.16-1.16"
	},
	{
		"rt": 185.02499999885913,
		"stimulus": "look under the lunchroom tables",
		"key_press": 74,
		"trial_type": "html-keyboard-response",
		"trial_index": 100,
		"time_elapsed": 161725,
		"internal_node_id": "0.0-8.17-0.17",
		"modal_type": "irrational",
		"speed": "slow",
		"vignette": "Mary",
		"internal_type": "stimulus",
		"answered": "impossible"
	},
	{
		"rt": null,
		"stimulus": "",
		"key_press": null,
		"trial_type": "html-keyboard-response",
		"trial_index": 101,
		"time_elapsed": 162230,
		"internal_node_id": "0.0-8.17-1.17"
	},
	{
		"rt": 198.74500000150874,
		"stimulus": "turn in a completely blank page",
		"key_press": 74,
		"trial_type": "html-keyboard-response",
		"trial_index": 102,
		"time_elapsed": 162429,
		"internal_node_id": "0.0-8.18-0.18",
		"modal_type": "irrational",
		"speed": "slow",
		"vignette": "Mary",
		"internal_type": "stimulus",
		"answered": "impossible"
	},
	{
		"rt": null,
		"stimulus": "",
		"key_press": null,
		"trial_type": "html-keyboard-response",
		"trial_index": 103,
		"time_elapsed": 162931,
		"internal_node_id": "0.0-8.18-1.18"
	},
	{
		"rt": 254.2600000015227,
		"stimulus": "turn in last week's homework again",
		"key_press": 74,
		"trial_type": "html-keyboard-response",
		"trial_index": 104,
		"time_elapsed": 163186,
		"internal_node_id": "0.0-8.19-0.19",
		"modal_type": "irrational",
		"speed": "slow",
		"vignette": "Mary",
		"internal_type": "stimulus",
		"answered": "impossible"
	},
	{
		"rt": null,
		"stimulus": "",
		"key_press": null,
		"trial_type": "html-keyboard-response",
		"trial_index": 105,
		"time_elapsed": 163691,
		"internal_node_id": "0.0-8.19-1.19"
	},
	{
		"view_history": "[{\"page_index\":0,\"viewing_time\":1097.0450000022538},{\"page_index\":1,\"viewing_time\":504.20999999914784}]",
		"rt": 1601.555000001099,
		"internal_type": "instructions",
		"trial_type": "instructions",
		"trial_index": 106,
		"time_elapsed": 165295,
		"internal_node_id": "0.0-9.0"
	},
	{
		"rt": 947.664999999688,
		"stimulus": "be given a free meal",
		"key_press": 74,
		"trial_type": "html-keyboard-response",
		"trial_index": 107,
		"time_elapsed": 166244,
		"internal_node_id": "0.0-10.0-0.0",
		"modal_type": "improbable",
		"speed": "slow",
		"vignette": "Sam",
		"internal_type": "stimulus",
		"answered": "impossible"
	},
	{
		"rt": null,
		"stimulus": "",
		"key_press": null,
		"trial_type": "html-keyboard-response",
		"trial_index": 108,
		"time_elapsed": 166748,
		"internal_node_id": "0.0-10.0-1.0"
	},
	{
		"rt": 119.79500000597909,
		"stimulus": "have a stranger pay",
		"key_press": 74,
		"trial_type": "html-keyboard-response",
		"trial_index": 109,
		"time_elapsed": 166869,
		"internal_node_id": "0.0-10.1-0.1",
		"modal_type": "improbable",
		"speed": "slow",
		"vignette": "Sam",
		"internal_type": "stimulus",
		"answered": "impossible"
	},
	{
		"rt": null,
		"stimulus": "",
		"key_press": null,
		"trial_type": "html-keyboard-response",
		"trial_index": 110,
		"time_elapsed": 167374,
		"internal_node_id": "0.0-10.1-1.1"
	},
	{
		"rt": 98.03999999712687,
		"stimulus": "find a $100 gift card",
		"key_press": 74,
		"trial_type": "html-keyboard-response",
		"trial_index": 111,
		"time_elapsed": 167473,
		"internal_node_id": "0.0-10.2-0.2",
		"modal_type": "improbable",
		"speed": "slow",
		"vignette": "Sam",
		"internal_type": "stimulus",
		"answered": "impossible"
	},
	{
		"rt": null,
		"stimulus": "",
		"key_press": null,
		"trial_type": "html-keyboard-response",
		"trial_index": 112,
		"time_elapsed": 167978,
		"internal_node_id": "0.0-10.2-1.2"
	},
	{
		"rt": 159.68000000430038,
		"stimulus": "pay with European money",
		"key_press": 74,
		"trial_type": "html-keyboard-response",
		"trial_index": 113,
		"time_elapsed": 168139,
		"internal_node_id": "0.0-10.3-0.3",
		"modal_type": "improbable",
		"speed": "slow",
		"vignette": "Sam",
		"internal_type": "stimulus",
		"answered": "impossible"
	},
	{
		"rt": null,
		"stimulus": "",
		"key_press": null,
		"trial_type": "html-keyboard-response",
		"trial_index": 114,
		"time_elapsed": 168644,
		"internal_node_id": "0.0-10.3-1.3"
	},
	{
		"rt": 152.01499999966472,
		"stimulus": "start cooking in the restaurant’s kitchen",
		"key_press": 74,
		"trial_type": "html-keyboard-response",
		"trial_index": 115,
		"time_elapsed": 168796,
		"internal_node_id": "0.0-10.4-0.4",
		"modal_type": "irrational",
		"speed": "slow",
		"vignette": "Sam",
		"internal_type": "stimulus",
		"answered": "impossible"
	},
	{
		"rt": null,
		"stimulus": "",
		"key_press": null,
		"trial_type": "html-keyboard-response",
		"trial_index": 116,
		"time_elapsed": 169297,
		"internal_node_id": "0.0-10.4-1.4"
	},
	{
		"rt": 160.24499999912223,
		"stimulus": "order an entire second meal",
		"key_press": 74,
		"trial_type": "html-keyboard-response",
		"trial_index": 117,
		"time_elapsed": 169458,
		"internal_node_id": "0.0-10.5-0.5",
		"modal_type": "irrational",
		"speed": "slow",
		"vignette": "Sam",
		"internal_type": "stimulus",
		"answered": "impossible"
	},
	{
		"rt": null,
		"stimulus": "",
		"key_press": null,
		"trial_type": "html-keyboard-response",
		"trial_index": 118,
		"time_elapsed": 169963,
		"internal_node_id": "0.0-10.5-1.5"
	},
	{
		"rt": 220.9999999977299,
		"stimulus": "never eat Italian food again",
		"key_press": 74,
		"trial_type": "html-keyboard-response",
		"trial_index": 119,
		"time_elapsed": 170186,
		"internal_node_id": "0.0-10.6-0.6",
		"modal_type": "irrational",
		"speed": "slow",
		"vignette": "Sam",
		"internal_type": "stimulus",
		"answered": "impossible"
	},
	{
		"rt": null,
		"stimulus": "",
		"key_press": null,
		"trial_type": "html-keyboard-response",
		"trial_index": 120,
		"time_elapsed": 170691,
		"internal_node_id": "0.0-10.6-1.6"
	},
	{
		"rt": 139.82499999838183,
		"stimulus": "run around the restaurant screaming",
		"key_press": 74,
		"trial_type": "html-keyboard-response",
		"trial_index": 121,
		"time_elapsed": 170831,
		"internal_node_id": "0.0-10.7-0.7",
		"modal_type": "irrational",
		"speed": "slow",
		"vignette": "Sam",
		"internal_type": "stimulus",
		"answered": "impossible"
	},
	{
		"rt": null,
		"stimulus": "",
		"key_press": null,
		"trial_type": "html-keyboard-response",
		"trial_index": 122,
		"time_elapsed": 171337,
		"internal_node_id": "0.0-10.7-1.7"
	},
	{
		"rt": 119.98999999923399,
		"stimulus": "try another credit card",
		"key_press": 74,
		"trial_type": "html-keyboard-response",
		"trial_index": 123,
		"time_elapsed": 171458,
		"internal_node_id": "0.0-10.8-0.8",
		"modal_type": "possible",
		"speed": "slow",
		"vignette": "Sam",
		"internal_type": "stimulus",
		"answered": "impossible"
	},
	{
		"rt": null,
		"stimulus": "",
		"key_press": null,
		"trial_type": "html-keyboard-response",
		"trial_index": 124,
		"time_elapsed": 171958,
		"internal_node_id": "0.0-10.8-1.8"
	},
	{
		"rt": 132.08499999745982,
		"stimulus": "pay his date back later",
		"key_press": 74,
		"trial_type": "html-keyboard-response",
		"trial_index": 125,
		"time_elapsed": 172091,
		"internal_node_id": "0.0-10.9-0.9",
		"modal_type": "possible",
		"speed": "slow",
		"vignette": "Sam",
		"internal_type": "stimulus",
		"answered": "impossible"
	},
	{
		"rt": null,
		"stimulus": "",
		"key_press": null,
		"trial_type": "html-keyboard-response",
		"trial_index": 126,
		"time_elapsed": 172596,
		"internal_node_id": "0.0-10.9-1.9"
	},
	{
		"rt": 150.34000000014203,
		"stimulus": "write a paper check instead",
		"key_press": 74,
		"trial_type": "html-keyboard-response",
		"trial_index": 127,
		"time_elapsed": 172747,
		"internal_node_id": "0.0-10.10-0.10",
		"modal_type": "possible",
		"speed": "slow",
		"vignette": "Sam",
		"internal_type": "stimulus",
		"answered": "impossible"
	},
	{
		"rt": null,
		"stimulus": "",
		"key_press": null,
		"trial_type": "html-keyboard-response",
		"trial_index": 128,
		"time_elapsed": 173252,
		"internal_node_id": "0.0-10.10-1.10"
	},
	{
		"rt": 233.04500000085682,
		"stimulus": "go to a nearby ATM",
		"key_press": 74,
		"trial_type": "html-keyboard-response",
		"trial_index": 129,
		"time_elapsed": 173488,
		"internal_node_id": "0.0-10.11-0.11",
		"modal_type": "possible",
		"speed": "slow",
		"vignette": "Sam",
		"internal_type": "stimulus",
		"answered": "impossible"
	},
	{
		"rt": null,
		"stimulus": "",
		"key_press": null,
		"trial_type": "html-keyboard-response",
		"trial_index": 130,
		"time_elapsed": 173990,
		"internal_node_id": "0.0-10.11-1.11"
	},
	{
		"rt": 127.07000000227708,
		"stimulus": "take money from the cashier",
		"key_press": 74,
		"trial_type": "html-keyboard-response",
		"trial_index": 131,
		"time_elapsed": 174118,
		"internal_node_id": "0.0-10.12-0.12",
		"modal_type": "immoral",
		"speed": "slow",
		"vignette": "Sam",
		"internal_type": "stimulus",
		"answered": "impossible"
	},
	{
		"rt": null,
		"stimulus": "",
		"key_press": null,
		"trial_type": "html-keyboard-response",
		"trial_index": 132,
		"time_elapsed": 174621,
		"internal_node_id": "0.0-10.12-1.12"
	},
	{
		"rt": 219.61000000010245,
		"stimulus": "sneak out of the restaurant",
		"key_press": 74,
		"trial_type": "html-keyboard-response",
		"trial_index": 133,
		"time_elapsed": 174841,
		"internal_node_id": "0.0-10.13-0.13",
		"modal_type": "immoral",
		"speed": "slow",
		"vignette": "Sam",
		"internal_type": "stimulus",
		"answered": "impossible"
	},
	{
		"rt": null,
		"stimulus": "",
		"key_press": null,
		"trial_type": "html-keyboard-response",
		"trial_index": 134,
		"time_elapsed": 175346,
		"internal_node_id": "0.0-10.13-1.13"
	},
	{
		"rt": 103.93499999918276,
		"stimulus": "steal money from his date",
		"key_press": 74,
		"trial_type": "html-keyboard-response",
		"trial_index": 135,
		"time_elapsed": 175451,
		"internal_node_id": "0.0-10.14-0.14",
		"modal_type": "immoral",
		"speed": "slow",
		"vignette": "Sam",
		"internal_type": "stimulus",
		"answered": "impossible"
	},
	{
		"rt": null,
		"stimulus": "",
		"key_press": null,
		"trial_type": "html-keyboard-response",
		"trial_index": 136,
		"time_elapsed": 175956,
		"internal_node_id": "0.0-10.14-1.14"
	},
	{
		"rt": 187.06000000383938,
		"stimulus": "pretend dinner made him sick",
		"key_press": 74,
		"trial_type": "html-keyboard-response",
		"trial_index": 137,
		"time_elapsed": 176145,
		"internal_node_id": "0.0-10.15-0.15",
		"modal_type": "immoral",
		"speed": "slow",
		"vignette": "Sam",
		"internal_type": "stimulus",
		"answered": "impossible"
	},
	{
		"rt": null,
		"stimulus": "",
		"key_press": null,
		"trial_type": "html-keyboard-response",
		"trial_index": 138,
		"time_elapsed": 176645,
		"internal_node_id": "0.0-10.15-1.15"
	},
	{
		"rt": 218.8800000003539,
		"stimulus": "wish money into his account",
		"key_press": 74,
		"trial_type": "html-keyboard-response",
		"trial_index": 139,
		"time_elapsed": 176866,
		"internal_node_id": "0.0-10.16-0.16",
		"modal_type": "impossible",
		"speed": "slow",
		"vignette": "Sam",
		"internal_type": "stimulus",
		"answered": "impossible"
	},
	{
		"rt": null,
		"stimulus": "",
		"key_press": null,
		"trial_type": "html-keyboard-response",
		"trial_index": 140,
		"time_elapsed": 177371,
		"internal_node_id": "0.0-10.16-1.16"
	},
	{
		"rt": 169.21500000171363,
		"stimulus": "collect money off a tree",
		"key_press": 74,
		"trial_type": "html-keyboard-response",
		"trial_index": 141,
		"time_elapsed": 177541,
		"internal_node_id": "0.0-10.17-0.17",
		"modal_type": "impossible",
		"speed": "slow",
		"vignette": "Sam",
		"internal_type": "stimulus",
		"answered": "impossible"
	},
	{
		"rt": null,
		"stimulus": "",
		"key_press": null,
		"trial_type": "html-keyboard-response",
		"trial_index": 142,
		"time_elapsed": 178046,
		"internal_node_id": "0.0-10.17-1.17"
	},
	{
		"rt": 104.96499999862863,
		"stimulus": "make the restaurant food free",
		"key_press": 74,
		"trial_type": "html-keyboard-response",
		"trial_index": 143,
		"time_elapsed": 178152,
		"internal_node_id": "0.0-10.18-0.18",
		"modal_type": "impossible",
		"speed": "slow",
		"vignette": "Sam",
		"internal_type": "stimulus",
		"answered": "impossible"
	},
	{
		"rt": null,
		"stimulus": "",
		"key_press": null,
		"trial_type": "html-keyboard-response",
		"trial_index": 144,
		"time_elapsed": 178655,
		"internal_node_id": "0.0-10.18-1.18"
	},
	{
		"rt": 212.16500000446104,
		"stimulus": "summon money out of thin air",
		"key_press": 74,
		"trial_type": "html-keyboard-response",
		"trial_index": 145,
		"time_elapsed": 178868,
		"internal_node_id": "0.0-10.19-0.19",
		"modal_type": "impossible",
		"speed": "slow",
		"vignette": "Sam",
		"internal_type": "stimulus",
		"answered": "impossible"
	},
	{
		"rt": null,
		"stimulus": "",
		"key_press": null,
		"trial_type": "html-keyboard-response",
		"trial_index": 146,
		"time_elapsed": 179373,
		"internal_node_id": "0.0-10.19-1.19"
	},
	{
		"view_history": "[{\"page_index\":0,\"viewing_time\":1830.724999999802},{\"page_index\":1,\"viewing_time\":961.4950000031968}]",
		"rt": 2792.5299999988056,
		"internal_type": "instructions",
		"trial_type": "instructions",
		"trial_index": 147,
		"time_elapsed": 182168,
		"internal_node_id": "0.0-11.0"
	},
	{
		"rt": 1242.1099999992293,
		"stimulus": "promise him cake when he gets home",
		"key_press": 74,
		"trial_type": "html-keyboard-response",
		"trial_index": 148,
		"time_elapsed": 183411,
		"internal_node_id": "0.0-12.0-0.0",
		"modal_type": "possible",
		"speed": "slow",
		"vignette": "Emily",
		"internal_type": "stimulus",
		"answered": "impossible"
	},
	{
		"rt": null,
		"stimulus": "",
		"key_press": null,
		"trial_type": "html-keyboard-response",
		"trial_index": 149,
		"time_elapsed": 183913,
		"internal_node_id": "0.0-12.0-1.0"
	},
	{
		"rt": 203.97500000399305,
		"stimulus": "go buy a nut-free dessert",
		"key_press": 74,
		"trial_type": "html-keyboard-response",
		"trial_index": 150,
		"time_elapsed": 184118,
		"internal_node_id": "0.0-12.1-0.1",
		"modal_type": "possible",
		"speed": "slow",
		"vignette": "Emily",
		"internal_type": "stimulus",
		"answered": "impossible"
	},
	{
		"rt": null,
		"stimulus": "",
		"key_press": null,
		"trial_type": "html-keyboard-response",
		"trial_index": 151,
		"time_elapsed": 184623,
		"internal_node_id": "0.0-12.1-1.1"
	},
	{
		"rt": 173.97999999957392,
		"stimulus": "serve ice cream instead",
		"key_press": 74,
		"trial_type": "html-keyboard-response",
		"trial_index": 152,
		"time_elapsed": 184798,
		"internal_node_id": "0.0-12.2-0.2",
		"modal_type": "possible",
		"speed": "slow",
		"vignette": "Emily",
		"internal_type": "stimulus",
		"answered": "impossible"
	},
	{
		"rt": null,
		"stimulus": "",
		"key_press": null,
		"trial_type": "html-keyboard-response",
		"trial_index": 153,
		"time_elapsed": 185303,
		"internal_node_id": "0.0-12.2-1.2"
	},
	{
		"rt": 293.0199999973411,
		"stimulus": "give the child a toy instead",
		"key_press": 74,
		"trial_type": "html-keyboard-response",
		"trial_index": 154,
		"time_elapsed": 185597,
		"internal_node_id": "0.0-12.3-0.3",
		"modal_type": "possible",
		"speed": "slow",
		"vignette": "Emily",
		"internal_type": "stimulus",
		"answered": "impossible"
	},
	{
		"rt": null,
		"stimulus": "",
		"key_press": null,
		"trial_type": "html-keyboard-response",
		"trial_index": 155,
		"time_elapsed": 186102,
		"internal_node_id": "0.0-12.3-1.3"
	},
	{
		"rt": 290.83999999420485,
		"stimulus": "zap the nuts from the cake",
		"key_press": 74,
		"trial_type": "html-keyboard-response",
		"trial_index": 156,
		"time_elapsed": 186394,
		"internal_node_id": "0.0-12.4-0.4",
		"modal_type": "impossible",
		"speed": "slow",
		"vignette": "Emily",
		"internal_type": "stimulus",
		"answered": "impossible"
	},
	{
		"rt": null,
		"stimulus": "",
		"key_press": null,
		"trial_type": "html-keyboard-response",
		"trial_index": 157,
		"time_elapsed": 186895,
		"internal_node_id": "0.0-12.4-1.4"
	},
	{
		"rt": 187.21499999810476,
		"stimulus": "modify genetics to eliminate allergies",
		"key_press": 74,
		"trial_type": "html-keyboard-response",
		"trial_index": 158,
		"time_elapsed": 187083,
		"internal_node_id": "0.0-12.5-0.5",
		"modal_type": "impossible",
		"speed": "slow",
		"vignette": "Emily",
		"internal_type": "stimulus",
		"answered": "impossible"
	},
	{
		"rt": null,
		"stimulus": "",
		"key_press": null,
		"trial_type": "html-keyboard-response",
		"trial_index": 159,
		"time_elapsed": 187587,
		"internal_node_id": "0.0-12.5-1.5"
	},
	{
		"rt": 299.1699999984121,
		"stimulus": "pull the allergy out of him",
		"key_press": 74,
		"trial_type": "html-keyboard-response",
		"trial_index": 160,
		"time_elapsed": 187887,
		"internal_node_id": "0.0-12.6-0.6",
		"modal_type": "impossible",
		"speed": "slow",
		"vignette": "Emily",
		"internal_type": "stimulus",
		"answered": "impossible"
	},
	{
		"rt": null,
		"stimulus": "",
		"key_press": null,
		"trial_type": "html-keyboard-response",
		"trial_index": 161,
		"time_elapsed": 188388,
		"internal_node_id": "0.0-12.6-1.6"
	},
	{
		"rt": 259.6499999999651,
		"stimulus": "convince him to not have a reaction",
		"key_press": 74,
		"trial_type": "html-keyboard-response",
		"trial_index": 162,
		"time_elapsed": 188649,
		"internal_node_id": "0.0-12.7-0.7",
		"modal_type": "impossible",
		"speed": "slow",
		"vignette": "Emily",
		"internal_type": "stimulus",
		"answered": "impossible"
	},
	{
		"rt": null,
		"stimulus": "",
		"key_press": null,
		"trial_type": "html-keyboard-response",
		"trial_index": 163,
		"time_elapsed": 189153,
		"internal_node_id": "0.0-12.7-1.7"
	},
	{
		"rt": 302.1299999963958,
		"stimulus": "hide the forks from everyone",
		"key_press": 74,
		"trial_type": "html-keyboard-response",
		"trial_index": 164,
		"time_elapsed": 189456,
		"internal_node_id": "0.0-12.8-0.8",
		"modal_type": "irrational",
		"speed": "slow",
		"vignette": "Emily",
		"internal_type": "stimulus",
		"answered": "impossible"
	},
	{
		"rt": null,
		"stimulus": "",
		"key_press": null,
		"trial_type": "html-keyboard-response",
		"trial_index": 165,
		"time_elapsed": 189961,
		"internal_node_id": "0.0-12.8-1.8"
	},
	{
		"rt": 247.07499999931315,
		"stimulus": "postpone the party for a month",
		"key_press": 74,
		"trial_type": "html-keyboard-response",
		"trial_index": 166,
		"time_elapsed": 190209,
		"internal_node_id": "0.0-12.9-0.9",
		"modal_type": "irrational",
		"speed": "slow",
		"vignette": "Emily",
		"internal_type": "stimulus",
		"answered": "impossible"
	},
	{
		"rt": null,
		"stimulus": "",
		"key_press": null,
		"trial_type": "html-keyboard-response",
		"trial_index": 167,
		"time_elapsed": 190714,
		"internal_node_id": "0.0-12.9-1.9"
	},
	{
		"rt": 250.67999999737367,
		"stimulus": "send everyone home early",
		"key_press": 74,
		"trial_type": "html-keyboard-response",
		"trial_index": 168,
		"time_elapsed": 190966,
		"internal_node_id": "0.0-12.10-0.10",
		"modal_type": "irrational",
		"speed": "slow",
		"vignette": "Emily",
		"internal_type": "stimulus",
		"answered": "impossible"
	},
	{
		"rt": null,
		"stimulus": "",
		"key_press": null,
		"trial_type": "html-keyboard-response",
		"trial_index": 169,
		"time_elapsed": 191471,
		"internal_node_id": "0.0-12.10-1.10"
	},
	{
		"rt": 281.3400000013644,
		"stimulus": "explain the history of cake",
		"key_press": 74,
		"trial_type": "html-keyboard-response",
		"trial_index": 170,
		"time_elapsed": 191753,
		"internal_node_id": "0.0-12.11-0.11",
		"modal_type": "irrational",
		"speed": "slow",
		"vignette": "Emily",
		"internal_type": "stimulus",
		"answered": "impossible"
	},
	{
		"rt": null,
		"stimulus": "",
		"key_press": null,
		"trial_type": "html-keyboard-response",
		"trial_index": 171,
		"time_elapsed": 192258,
		"internal_node_id": "0.0-12.11-1.11"
	},
	{
		"rt": 243.8350000011269,
		"stimulus": "discover a nut-free cake in her bag",
		"key_press": 74,
		"trial_type": "html-keyboard-response",
		"trial_index": 172,
		"time_elapsed": 192503,
		"internal_node_id": "0.0-12.12-0.12",
		"modal_type": "improbable",
		"speed": "slow",
		"vignette": "Emily",
		"internal_type": "stimulus",
		"answered": "impossible"
	},
	{
		"rt": null,
		"stimulus": "",
		"key_press": null,
		"trial_type": "html-keyboard-response",
		"trial_index": 173,
		"time_elapsed": 193008,
		"internal_node_id": "0.0-12.12-1.12"
	},
	{
		"rt": 237.9499999951804,
		"stimulus": "invent an anti-allergy remedy",
		"key_press": 74,
		"trial_type": "html-keyboard-response",
		"trial_index": 174,
		"time_elapsed": 193247,
		"internal_node_id": "0.0-12.13-0.13",
		"modal_type": "improbable",
		"speed": "slow",
		"vignette": "Emily",
		"internal_type": "stimulus",
		"answered": "impossible"
	},
	{
		"rt": null,
		"stimulus": "",
		"key_press": null,
		"trial_type": "html-keyboard-response",
		"trial_index": 175,
		"time_elapsed": 193748,
		"internal_node_id": "0.0-12.13-1.13"
	},
	{
		"rt": 246.32500000006985,
		"stimulus": "learn that the child was lying",
		"key_press": 74,
		"trial_type": "html-keyboard-response",
		"trial_index": 176,
		"time_elapsed": 193996,
		"internal_node_id": "0.0-12.14-0.14",
		"modal_type": "improbable",
		"speed": "slow",
		"vignette": "Emily",
		"internal_type": "stimulus",
		"answered": "impossible"
	},
	{
		"rt": null,
		"stimulus": "",
		"key_press": null,
		"trial_type": "html-keyboard-response",
		"trial_index": 177,
		"time_elapsed": 194499,
		"internal_node_id": "0.0-12.14-1.14"
	},
	{
		"rt": 247.52499999885913,
		"stimulus": "learn that the child doesn’t want cake",
		"key_press": 74,
		"trial_type": "html-keyboard-response",
		"trial_index": 178,
		"time_elapsed": 194748,
		"internal_node_id": "0.0-12.15-0.15",
		"modal_type": "improbable",
		"speed": "slow",
		"vignette": "Emily",
		"internal_type": "stimulus",
		"answered": "impossible"
	},
	{
		"rt": null,
		"stimulus": "",
		"key_press": null,
		"trial_type": "html-keyboard-response",
		"trial_index": 179,
		"time_elapsed": 195249,
		"internal_node_id": "0.0-12.15-1.15"
	},
	{
		"rt": 431.7799999989802,
		"stimulus": "lie that the cake is nut-free",
		"key_press": 70,
		"trial_type": "html-keyboard-response",
		"trial_index": 180,
		"time_elapsed": 195682,
		"internal_node_id": "0.0-12.16-0.16",
		"modal_type": "immoral",
		"speed": "slow",
		"vignette": "Emily",
		"internal_type": "stimulus",
		"answered": "possible"
	},
	{
		"rt": null,
		"stimulus": "",
		"key_press": null,
		"trial_type": "html-keyboard-response",
		"trial_index": 181,
		"time_elapsed": 196187,
		"internal_node_id": "0.0-12.16-1.16"
	},
	{
		"rt": 187.87500000325963,
		"stimulus": "kick the child out of the party",
		"key_press": 70,
		"trial_type": "html-keyboard-response",
		"trial_index": 182,
		"time_elapsed": 196376,
		"internal_node_id": "0.0-12.17-0.17",
		"modal_type": "immoral",
		"speed": "slow",
		"vignette": "Emily",
		"internal_type": "stimulus",
		"answered": "possible"
	},
	{
		"rt": null,
		"stimulus": "",
		"key_press": null,
		"trial_type": "html-keyboard-response",
		"trial_index": 183,
		"time_elapsed": 196880,
		"internal_node_id": "0.0-12.17-1.17"
	},
	{
		"rt": 217.77499999734573,
		"stimulus": "reprimand him for inconveniencing everyone",
		"key_press": 70,
		"trial_type": "html-keyboard-response",
		"trial_index": 184,
		"time_elapsed": 197099,
		"internal_node_id": "0.0-12.18-0.18",
		"modal_type": "immoral",
		"speed": "slow",
		"vignette": "Emily",
		"internal_type": "stimulus",
		"answered": "possible"
	},
	{
		"rt": null,
		"stimulus": "",
		"key_press": null,
		"trial_type": "html-keyboard-response",
		"trial_index": 185,
		"time_elapsed": 197604,
		"internal_node_id": "0.0-12.18-1.18"
	},
	{
		"rt": 265.3250000003027,
		"stimulus": "blame the child’s parents for genetics",
		"key_press": 70,
		"trial_type": "html-keyboard-response",
		"trial_index": 186,
		"time_elapsed": 197870,
		"internal_node_id": "0.0-12.19-0.19",
		"modal_type": "immoral",
		"speed": "slow",
		"vignette": "Emily",
		"internal_type": "stimulus",
		"answered": "possible"
	},
	{
		"rt": null,
		"stimulus": "",
		"key_press": null,
		"trial_type": "html-keyboard-response",
		"trial_index": 187,
		"time_elapsed": 198371,
		"internal_node_id": "0.0-12.19-1.19"
	},
	{
		"view_history": "[{\"page_index\":0,\"viewing_time\":1246.9300000011572},{\"page_index\":1,\"viewing_time\":737.2849999956088}]",
		"rt": 1984.505000000354,
		"internal_type": "instructions",
		"trial_type": "instructions",
		"trial_index": 188,
		"time_elapsed": 200358,
		"internal_node_id": "0.0-13.0"
	},
	{
		"rt": 1214.6899999934249,
		"stimulus": "go for a run outside instead",
		"key_press": 70,
		"trial_type": "html-keyboard-response",
		"trial_index": 189,
		"time_elapsed": 201574,
		"internal_node_id": "0.0-14.0-0.0",
		"modal_type": "possible",
		"speed": "slow",
		"vignette": "Liz",
		"internal_type": "stimulus",
		"answered": "possible"
	},
	{
		"rt": null,
		"stimulus": "",
		"key_press": null,
		"trial_type": "html-keyboard-response",
		"trial_index": 190,
		"time_elapsed": 202079,
		"internal_node_id": "0.0-14.0-1.0"
	},
	{
		"rt": 221.9550000008894,
		"stimulus": "decide to lift weights at home",
		"key_press": 70,
		"trial_type": "html-keyboard-response",
		"trial_index": 191,
		"time_elapsed": 202302,
		"internal_node_id": "0.0-14.1-0.1",
		"modal_type": "possible",
		"speed": "slow",
		"vignette": "Liz",
		"internal_type": "stimulus",
		"answered": "possible"
	},
	{
		"rt": null,
		"stimulus": "",
		"key_press": null,
		"trial_type": "html-keyboard-response",
		"trial_index": 192,
		"time_elapsed": 202807,
		"internal_node_id": "0.0-14.1-1.1"
	},
	{
		"rt": 239.72499999945285,
		"stimulus": "pay for a one-day gym pass",
		"key_press": 70,
		"trial_type": "html-keyboard-response",
		"trial_index": 193,
		"time_elapsed": 203047,
		"internal_node_id": "0.0-14.2-0.2",
		"modal_type": "possible",
		"speed": "slow",
		"vignette": "Liz",
		"internal_type": "stimulus",
		"answered": "possible"
	},
	{
		"rt": null,
		"stimulus": "",
		"key_press": null,
		"trial_type": "html-keyboard-response",
		"trial_index": 194,
		"time_elapsed": 203549,
		"internal_node_id": "0.0-14.2-1.2"
	},
	{
		"rt": 191.82500000169966,
		"stimulus": "renew her gym membership",
		"key_press": 70,
		"trial_type": "html-keyboard-response",
		"trial_index": 195,
		"time_elapsed": 203742,
		"internal_node_id": "0.0-14.3-0.3",
		"modal_type": "possible",
		"speed": "slow",
		"vignette": "Liz",
		"internal_type": "stimulus",
		"answered": "possible"
	},
	{
		"rt": null,
		"stimulus": "",
		"key_press": null,
		"trial_type": "html-keyboard-response",
		"trial_index": 196,
		"time_elapsed": 204247,
		"internal_node_id": "0.0-14.3-1.3"
	},
	{
		"rt": 116.90500000258908,
		"stimulus": "decide to never exercise again",
		"key_press": 70,
		"trial_type": "html-keyboard-response",
		"trial_index": 197,
		"time_elapsed": 204365,
		"internal_node_id": "0.0-14.4-0.4",
		"modal_type": "irrational",
		"speed": "slow",
		"vignette": "Liz",
		"internal_type": "stimulus",
		"answered": "possible"
	},
	{
		"rt": null,
		"stimulus": "",
		"key_press": null,
		"trial_type": "html-keyboard-response",
		"trial_index": 198,
		"time_elapsed": 204870,
		"internal_node_id": "0.0-14.4-1.4"
	},
	{
		"rt": 126.19500000437256,
		"stimulus": "try again in three minutes",
		"key_press": 70,
		"trial_type": "html-keyboard-response",
		"trial_index": 199,
		"time_elapsed": 204997,
		"internal_node_id": "0.0-14.5-0.5",
		"modal_type": "irrational",
		"speed": "slow",
		"vignette": "Liz",
		"internal_type": "stimulus",
		"answered": "possible"
	},
	{
		"rt": null,
		"stimulus": "",
		"key_press": null,
		"trial_type": "html-keyboard-response",
		"trial_index": 200,
		"time_elapsed": 205498,
		"internal_node_id": "0.0-14.5-1.5"
	},
	{
		"rt": 190.67500000528526,
		"stimulus": "complain in a foreign language",
		"key_press": 70,
		"trial_type": "html-keyboard-response",
		"trial_index": 201,
		"time_elapsed": 205690,
		"internal_node_id": "0.0-14.6-0.6",
		"modal_type": "irrational",
		"speed": "slow",
		"vignette": "Liz",
		"internal_type": "stimulus",
		"answered": "possible"
	},
	{
		"rt": null,
		"stimulus": "",
		"key_press": null,
		"trial_type": "html-keyboard-response",
		"trial_index": 202,
		"time_elapsed": 206195,
		"internal_node_id": "0.0-14.6-1.6"
	},
	{
		"rt": 167.88000000087777,
		"stimulus": "run back and forth in the lobby",
		"key_press": 70,
		"trial_type": "html-keyboard-response",
		"trial_index": 203,
		"time_elapsed": 206364,
		"internal_node_id": "0.0-14.7-0.7",
		"modal_type": "irrational",
		"speed": "slow",
		"vignette": "Liz",
		"internal_type": "stimulus",
		"answered": "possible"
	},
	{
		"rt": null,
		"stimulus": "",
		"key_press": null,
		"trial_type": "html-keyboard-response",
		"trial_index": 204,
		"time_elapsed": 206865,
		"internal_node_id": "0.0-14.7-1.7"
	},
	{
		"rt": 208.2250000021304,
		"stimulus": "learn the gym stopped checking IDs",
		"key_press": 70,
		"trial_type": "html-keyboard-response",
		"trial_index": 205,
		"time_elapsed": 207075,
		"internal_node_id": "0.0-14.8-0.8",
		"modal_type": "improbable",
		"speed": "slow",
		"vignette": "Liz",
		"internal_type": "stimulus",
		"answered": "possible"
	},
	{
		"rt": null,
		"stimulus": "",
		"key_press": null,
		"trial_type": "html-keyboard-response",
		"trial_index": 206,
		"time_elapsed": 207580,
		"internal_node_id": "0.0-14.8-1.8"
	},
	{
		"rt": 62.89500000275439,
		"stimulus": "receive a free lifetime membership",
		"key_press": 70,
		"trial_type": "html-keyboard-response",
		"trial_index": 207,
		"time_elapsed": 207644,
		"internal_node_id": "0.0-14.9-0.9",
		"modal_type": "improbable",
		"speed": "slow",
		"vignette": "Liz",
		"internal_type": "stimulus",
		"answered": "possible"
	},
	{
		"rt": null,
		"stimulus": "",
		"key_press": null,
		"trial_type": "html-keyboard-response",
		"trial_index": 208,
		"time_elapsed": 208148,
		"internal_node_id": "0.0-14.9-1.9"
	},
	{
		"rt": 181.04999999923166,
		"stimulus": "find a one-day pass in purse",
		"key_press": 70,
		"trial_type": "html-keyboard-response",
		"trial_index": 209,
		"time_elapsed": 208331,
		"internal_node_id": "0.0-14.10-0.10",
		"modal_type": "improbable",
		"speed": "slow",
		"vignette": "Liz",
		"internal_type": "stimulus",
		"answered": "possible"
	},
	{
		"rt": null,
		"stimulus": "",
		"key_press": null,
		"trial_type": "html-keyboard-response",
		"trial_index": 210,
		"time_elapsed": 208836,
		"internal_node_id": "0.0-14.10-1.10"
	},
	{
		"rt": 125.90500000078464,
		"stimulus": "discover the gym is free today",
		"key_press": 70,
		"trial_type": "html-keyboard-response",
		"trial_index": 211,
		"time_elapsed": 208963,
		"internal_node_id": "0.0-14.11-0.11",
		"modal_type": "improbable",
		"speed": "slow",
		"vignette": "Liz",
		"internal_type": "stimulus",
		"answered": "possible"
	},
	{
		"rt": null,
		"stimulus": "",
		"key_press": null,
		"trial_type": "html-keyboard-response",
		"trial_index": 212,
		"time_elapsed": 209468,
		"internal_node_id": "0.0-14.11-1.11"
	},
	{
		"rt": 234.79999999835854,
		"stimulus": "turn invisible and go in",
		"key_press": 70,
		"trial_type": "html-keyboard-response",
		"trial_index": 213,
		"time_elapsed": 209703,
		"internal_node_id": "0.0-14.12-0.12",
		"modal_type": "impossible",
		"speed": "slow",
		"vignette": "Liz",
		"internal_type": "stimulus",
		"answered": "possible"
	},
	{
		"rt": null,
		"stimulus": "",
		"key_press": null,
		"trial_type": "html-keyboard-response",
		"trial_index": 214,
		"time_elapsed": 210208,
		"internal_node_id": "0.0-14.12-1.12"
	},
	{
		"rt": 47.79000000417,
		"stimulus": "wish all gyms to be free forever",
		"key_press": 70,
		"trial_type": "html-keyboard-response",
		"trial_index": 215,
		"time_elapsed": 210257,
		"internal_node_id": "0.0-14.13-0.13",
		"modal_type": "impossible",
		"speed": "slow",
		"vignette": "Liz",
		"internal_type": "stimulus",
		"answered": "possible"
	},
	{
		"rt": null,
		"stimulus": "",
		"key_press": null,
		"trial_type": "html-keyboard-response",
		"trial_index": 216,
		"time_elapsed": 210762,
		"internal_node_id": "0.0-14.13-1.13"
	},
	{
		"rt": 170.03000000113389,
		"stimulus": "renew her membership by blinking",
		"key_press": 70,
		"trial_type": "html-keyboard-response",
		"trial_index": 217,
		"time_elapsed": 210933,
		"internal_node_id": "0.0-14.14-0.14",
		"modal_type": "impossible",
		"speed": "slow",
		"vignette": "Liz",
		"internal_type": "stimulus",
		"answered": "possible"
	},
	{
		"rt": null,
		"stimulus": "",
		"key_press": null,
		"trial_type": "html-keyboard-response",
		"trial_index": 218,
		"time_elapsed": 211438,
		"internal_node_id": "0.0-14.14-1.14"
	},
	{
		"rt": 88.99999999994179,
		"stimulus": "turn her hat into a gym pass",
		"key_press": 70,
		"trial_type": "html-keyboard-response",
		"trial_index": 219,
		"time_elapsed": 211529,
		"internal_node_id": "0.0-14.15-0.15",
		"modal_type": "impossible",
		"speed": "slow",
		"vignette": "Liz",
		"internal_type": "stimulus",
		"answered": "possible"
	},
	{
		"rt": null,
		"stimulus": "",
		"key_press": null,
		"trial_type": "html-keyboard-response",
		"trial_index": 220,
		"time_elapsed": 212032,
		"internal_node_id": "0.0-14.15-1.15"
	},
	{
		"rt": 250.16000000323402,
		"stimulus": "take someone else's gym card",
		"key_press": 70,
		"trial_type": "html-keyboard-response",
		"trial_index": 221,
		"time_elapsed": 212283,
		"internal_node_id": "0.0-14.16-0.16",
		"modal_type": "immoral",
		"speed": "slow",
		"vignette": "Liz",
		"internal_type": "stimulus",
		"answered": "possible"
	},
	{
		"rt": null,
		"stimulus": "",
		"key_press": null,
		"trial_type": "html-keyboard-response",
		"trial_index": 222,
		"time_elapsed": 212788,
		"internal_node_id": "0.0-14.16-1.16"
	},
	{
		"rt": 155.0950000018929,
		"stimulus": "claim she left her wallet inside",
		"key_press": 70,
		"trial_type": "html-keyboard-response",
		"trial_index": 223,
		"time_elapsed": 212944,
		"internal_node_id": "0.0-14.17-0.17",
		"modal_type": "immoral",
		"speed": "slow",
		"vignette": "Liz",
		"internal_type": "stimulus",
		"answered": "possible"
	},
	{
		"rt": null,
		"stimulus": "",
		"key_press": null,
		"trial_type": "html-keyboard-response",
		"trial_index": 224,
		"time_elapsed": 213447,
		"internal_node_id": "0.0-14.17-1.17"
	},
	{
		"rt": 161.67999999743188,
		"stimulus": "sneak past the gym attendant",
		"key_press": 70,
		"trial_type": "html-keyboard-response",
		"trial_index": 225,
		"time_elapsed": 213609,
		"internal_node_id": "0.0-14.18-0.18",
		"modal_type": "immoral",
		"speed": "slow",
		"vignette": "Liz",
		"internal_type": "stimulus",
		"answered": "possible"
	},
	{
		"rt": null,
		"stimulus": "",
		"key_press": null,
		"trial_type": "html-keyboard-response",
		"trial_index": 226,
		"time_elapsed": 214115,
		"internal_node_id": "0.0-14.18-1.18"
	},
	{
		"rt": 169.48499999853084,
		"stimulus": "go in the back door without paying",
		"key_press": 70,
		"trial_type": "html-keyboard-response",
		"trial_index": 227,
		"time_elapsed": 214286,
		"internal_node_id": "0.0-14.19-0.19",
		"modal_type": "immoral",
		"speed": "slow",
		"vignette": "Liz",
		"internal_type": "stimulus",
		"answered": "possible"
	},
	{
		"rt": null,
		"stimulus": "",
		"key_press": null,
		"trial_type": "html-keyboard-response",
		"trial_index": 228,
		"time_elapsed": 214790,
		"internal_node_id": "0.0-14.19-1.19"
	},
	{
		"view_history": "[{\"page_index\":0,\"viewing_time\":1522.7049999957671},{\"page_index\":1,\"viewing_time\":940.9250000026077}]",
		"rt": 2464.094999995723,
		"internal_type": "instructions",
		"trial_type": "instructions",
		"trial_index": 229,
		"time_elapsed": 217257,
		"internal_node_id": "0.0-15.0"
	},
	{
		"rt": 1446.2599999969825,
		"stimulus": "close the store five hours early",
		"key_press": 74,
		"trial_type": "html-keyboard-response",
		"trial_index": 230,
		"time_elapsed": 218704,
		"internal_node_id": "0.0-16.0-0.0",
		"modal_type": "irrational",
		"speed": "fast",
		"vignette": "Brian",
		"internal_type": "stimulus",
		"answered": "impossible"
	},
	{
		"rt": null,
		"stimulus": "",
		"key_press": null,
		"trial_type": "html-keyboard-response",
		"trial_index": 231,
		"time_elapsed": 219209,
		"internal_node_id": "0.0-16.0-1.0"
	},
	{
		"rt": 219.729999997071,
		"stimulus": "pay with his retirement fund",
		"key_press": 74,
		"trial_type": "html-keyboard-response",
		"trial_index": 232,
		"time_elapsed": 219430,
		"internal_node_id": "0.0-16.1-0.1",
		"modal_type": "irrational",
		"speed": "fast",
		"vignette": "Brian",
		"internal_type": "stimulus",
		"answered": "impossible"
	},
	{
		"rt": null,
		"stimulus": "",
		"key_press": null,
		"trial_type": "html-keyboard-response",
		"trial_index": 233,
		"time_elapsed": 219935,
		"internal_node_id": "0.0-16.1-1.1"
	},
	{
		"rt": 155.5999999982305,
		"stimulus": "try to invent new pastries",
		"key_press": 74,
		"trial_type": "html-keyboard-response",
		"trial_index": 234,
		"time_elapsed": 220091,
		"internal_node_id": "0.0-16.2-0.2",
		"modal_type": "irrational",
		"speed": "fast",
		"vignette": "Brian",
		"internal_type": "stimulus",
		"answered": "impossible"
	},
	{
		"rt": null,
		"stimulus": "",
		"key_press": null,
		"trial_type": "html-keyboard-response",
		"trial_index": 235,
		"time_elapsed": 220596,
		"internal_node_id": "0.0-16.2-1.2"
	},
	{
		"rt": 249.92000000202097,
		"stimulus": "discount food to encourage tipping",
		"key_press": 74,
		"trial_type": "html-keyboard-response",
		"trial_index": 236,
		"time_elapsed": 220847,
		"internal_node_id": "0.0-16.3-0.3",
		"modal_type": "irrational",
		"speed": "fast",
		"vignette": "Brian",
		"internal_type": "stimulus",
		"answered": "impossible"
	},
	{
		"rt": null,
		"stimulus": "",
		"key_press": null,
		"trial_type": "html-keyboard-response",
		"trial_index": 237,
		"time_elapsed": 221349,
		"internal_node_id": "0.0-16.3-1.3"
	},
	{
		"rt": 192.91999999404652,
		"stimulus": "turn the cash register invisible",
		"key_press": 74,
		"trial_type": "html-keyboard-response",
		"trial_index": 238,
		"time_elapsed": 221543,
		"internal_node_id": "0.0-16.4-0.4",
		"modal_type": "impossible",
		"speed": "fast",
		"vignette": "Brian",
		"internal_type": "stimulus",
		"answered": "impossible"
	},
	{
		"rt": null,
		"stimulus": "",
		"key_press": null,
		"trial_type": "html-keyboard-response",
		"trial_index": 239,
		"time_elapsed": 222048,
		"internal_node_id": "0.0-16.4-1.4"
	},
	{
		"rt": 237.81500000040978,
		"stimulus": "use some monopoly money instead",
		"key_press": 74,
		"trial_type": "html-keyboard-response",
		"trial_index": 240,
		"time_elapsed": 222287,
		"internal_node_id": "0.0-16.5-0.5",
		"modal_type": "impossible",
		"speed": "fast",
		"vignette": "Brian",
		"internal_type": "stimulus",
		"answered": "impossible"
	},
	{
		"rt": null,
		"stimulus": "",
		"key_press": null,
		"trial_type": "html-keyboard-response",
		"trial_index": 241,
		"time_elapsed": 222792,
		"internal_node_id": "0.0-16.5-1.5"
	},
	{
		"rt": 138.05000000138534,
		"stimulus": "take pictures of missing bills",
		"key_press": 74,
		"trial_type": "html-keyboard-response",
		"trial_index": 242,
		"time_elapsed": 222931,
		"internal_node_id": "0.0-16.6-0.6",
		"modal_type": "impossible",
		"speed": "fast",
		"vignette": "Brian",
		"internal_type": "stimulus",
		"answered": "impossible"
	},
	{
		"rt": null,
		"stimulus": "",
		"key_press": null,
		"trial_type": "html-keyboard-response",
		"trial_index": 243,
		"time_elapsed": 223436,
		"internal_node_id": "0.0-16.6-1.6"
	},
	{
		"rt": 180.07999999827007,
		"stimulus": "get the money by sneezing",
		"key_press": 74,
		"trial_type": "html-keyboard-response",
		"trial_index": 244,
		"time_elapsed": 223617,
		"internal_node_id": "0.0-16.7-0.7",
		"modal_type": "impossible",
		"speed": "fast",
		"vignette": "Brian",
		"internal_type": "stimulus",
		"answered": "impossible"
	},
	{
		"rt": null,
		"stimulus": "",
		"key_press": null,
		"trial_type": "html-keyboard-response",
		"trial_index": 245,
		"time_elapsed": 224118,
		"internal_node_id": "0.0-16.7-1.7"
	},
	{
		"rt": 317.1950000032666,
		"stimulus": "explain the situation to his boss",
		"key_press": 74,
		"trial_type": "html-keyboard-response",
		"trial_index": 246,
		"time_elapsed": 224436,
		"internal_node_id": "0.0-16.8-0.8",
		"modal_type": "possible",
		"speed": "fast",
		"vignette": "Brian",
		"internal_type": "stimulus",
		"answered": "impossible"
	},
	{
		"rt": null,
		"stimulus": "",
		"key_press": null,
		"trial_type": "html-keyboard-response",
		"trial_index": 247,
		"time_elapsed": 224940,
		"internal_node_id": "0.0-16.8-1.8"
	},
	{
		"rt": 169.1050000008545,
		"stimulus": "ask other employees what to do",
		"key_press": 74,
		"trial_type": "html-keyboard-response",
		"trial_index": 248,
		"time_elapsed": 225110,
		"internal_node_id": "0.0-16.9-0.9",
		"modal_type": "possible",
		"speed": "fast",
		"vignette": "Brian",
		"internal_type": "stimulus",
		"answered": "impossible"
	},
	{
		"rt": null,
		"stimulus": "",
		"key_press": null,
		"trial_type": "html-keyboard-response",
		"trial_index": 249,
		"time_elapsed": 225613,
		"internal_node_id": "0.0-16.9-1.9"
	},
	{
		"rt": 119.37499999476131,
		"stimulus": "use money from his own wallet",
		"key_press": 74,
		"trial_type": "html-keyboard-response",
		"trial_index": 250,
		"time_elapsed": 225734,
		"internal_node_id": "0.0-16.10-0.10",
		"modal_type": "possible",
		"speed": "fast",
		"vignette": "Brian",
		"internal_type": "stimulus",
		"answered": "impossible"
	},
	{
		"rt": null,
		"stimulus": "",
		"key_press": null,
		"trial_type": "html-keyboard-response",
		"trial_index": 251,
		"time_elapsed": 226237,
		"internal_node_id": "0.0-16.10-1.10"
	},
	{
		"rt": 223.03500000271015,
		"stimulus": "borrow money from a friend",
		"key_press": 74,
		"trial_type": "html-keyboard-response",
		"trial_index": 252,
		"time_elapsed": 226461,
		"internal_node_id": "0.0-16.11-0.11",
		"modal_type": "possible",
		"speed": "fast",
		"vignette": "Brian",
		"internal_type": "stimulus",
		"answered": "impossible"
	},
	{
		"rt": null,
		"stimulus": "",
		"key_press": null,
		"trial_type": "html-keyboard-response",
		"trial_index": 253,
		"time_elapsed": 226966,
		"internal_node_id": "0.0-16.11-1.11"
	},
	{
		"rt": 264.7050000014133,
		"stimulus": "overcharge the next customers",
		"key_press": 70,
		"trial_type": "html-keyboard-response",
		"trial_index": 254,
		"time_elapsed": 227232,
		"internal_node_id": "0.0-16.12-0.12",
		"modal_type": "immoral",
		"speed": "fast",
		"vignette": "Brian",
		"internal_type": "stimulus",
		"answered": "possible"
	},
	{
		"rt": null,
		"stimulus": "",
		"key_press": null,
		"trial_type": "html-keyboard-response",
		"trial_index": 255,
		"time_elapsed": 227737,
		"internal_node_id": "0.0-16.12-1.12"
	},
	{
		"rt": 176.88499999349006,
		"stimulus": "steal money from a coworker",
		"key_press": 70,
		"trial_type": "html-keyboard-response",
		"trial_index": 256,
		"time_elapsed": 227915,
		"internal_node_id": "0.0-16.13-0.13",
		"modal_type": "immoral",
		"speed": "fast",
		"vignette": "Brian",
		"internal_type": "stimulus",
		"answered": "possible"
	},
	{
		"rt": null,
		"stimulus": "",
		"key_press": null,
		"trial_type": "html-keyboard-response",
		"trial_index": 257,
		"time_elapsed": 228418,
		"internal_node_id": "0.0-16.13-1.13"
	},
	{
		"rt": 149.76000000024214,
		"stimulus": "lie about how much the bakery sold",
		"key_press": 70,
		"trial_type": "html-keyboard-response",
		"trial_index": 258,
		"time_elapsed": 228569,
		"internal_node_id": "0.0-16.14-0.14",
		"modal_type": "immoral",
		"speed": "fast",
		"vignette": "Brian",
		"internal_type": "stimulus",
		"answered": "possible"
	},
	{
		"rt": null,
		"stimulus": "",
		"key_press": null,
		"trial_type": "html-keyboard-response",
		"trial_index": 259,
		"time_elapsed": 229073,
		"internal_node_id": "0.0-16.14-1.14"
	},
	{
		"rt": 191.07500000245636,
		"stimulus": "give new customers incorrect change",
		"key_press": 70,
		"trial_type": "html-keyboard-response",
		"trial_index": 260,
		"time_elapsed": 229265,
		"internal_node_id": "0.0-16.15-0.15",
		"modal_type": "immoral",
		"speed": "fast",
		"vignette": "Brian",
		"internal_type": "stimulus",
		"answered": "possible"
	},
	{
		"rt": null,
		"stimulus": "",
		"key_press": null,
		"trial_type": "html-keyboard-response",
		"trial_index": 261,
		"time_elapsed": 229771,
		"internal_node_id": "0.0-16.15-1.15"
	},
	{
		"rt": 153.01000000181375,
		"stimulus": "find the money on the ground",
		"key_press": 70,
		"trial_type": "html-keyboard-response",
		"trial_index": 262,
		"time_elapsed": 229924,
		"internal_node_id": "0.0-16.16-0.16",
		"modal_type": "improbable",
		"speed": "fast",
		"vignette": "Brian",
		"internal_type": "stimulus",
		"answered": "possible"
	},
	{
		"rt": null,
		"stimulus": "",
		"key_press": null,
		"trial_type": "html-keyboard-response",
		"trial_index": 263,
		"time_elapsed": 230427,
		"internal_node_id": "0.0-16.16-1.16"
	},
	{
		"rt": 199.92500000080327,
		"stimulus": "discover the money is in his pocket",
		"key_press": 70,
		"trial_type": "html-keyboard-response",
		"trial_index": 264,
		"time_elapsed": 230628,
		"internal_node_id": "0.0-16.17-0.17",
		"modal_type": "improbable",
		"speed": "fast",
		"vignette": "Brian",
		"internal_type": "stimulus",
		"answered": "possible"
	},
	{
		"rt": null,
		"stimulus": "",
		"key_press": null,
		"trial_type": "html-keyboard-response",
		"trial_index": 265,
		"time_elapsed": 231133,
		"internal_node_id": "0.0-16.17-1.17"
	},
	{
		"rt": 127.80000000202563,
		"stimulus": "get a child to donate the money",
		"key_press": 70,
		"trial_type": "html-keyboard-response",
		"trial_index": 266,
		"time_elapsed": 231261,
		"internal_node_id": "0.0-16.18-0.18",
		"modal_type": "improbable",
		"speed": "fast",
		"vignette": "Brian",
		"internal_type": "stimulus",
		"answered": "possible"
	},
	{
		"rt": null,
		"stimulus": "",
		"key_press": null,
		"trial_type": "html-keyboard-response",
		"trial_index": 267,
		"time_elapsed": 231767,
		"internal_node_id": "0.0-16.18-1.18"
	},
	{
		"rt": 90.104999995674,
		"stimulus": "receive a 100 dollar tip",
		"key_press": 70,
		"trial_type": "html-keyboard-response",
		"trial_index": 268,
		"time_elapsed": 231858,
		"internal_node_id": "0.0-16.19-0.19",
		"modal_type": "improbable",
		"speed": "fast",
		"vignette": "Brian",
		"internal_type": "stimulus",
		"answered": "possible"
	},
	{
		"rt": null,
		"stimulus": "",
		"key_press": null,
		"trial_type": "html-keyboard-response",
		"trial_index": 269,
		"time_elapsed": 232359,
		"internal_node_id": "0.0-16.19-1.19"
	},
	{
		"view_history": "[{\"page_index\":0,\"viewing_time\":1444.550000000163},{\"page_index\":1,\"viewing_time\":890.2299999972456}]",
		"rt": 2335.0849999987986,
		"internal_type": "instructions",
		"trial_type": "instructions",
		"trial_index": 270,
		"time_elapsed": 234696,
		"internal_node_id": "0.0-17.0"
	},
	{
		"rt": 1067.284999997355,
		"stimulus": "steal another person's car",
		"key_press": 74,
		"trial_type": "html-keyboard-response",
		"trial_index": 271,
		"time_elapsed": 235765,
		"internal_node_id": "0.0-18.0-0.0",
		"modal_type": "immoral",
		"speed": "fast",
		"vignette": "Josh",
		"internal_type": "stimulus",
		"answered": "impossible"
	},
	{
		"rt": null,
		"stimulus": "",
		"key_press": null,
		"trial_type": "html-keyboard-response",
		"trial_index": 272,
		"time_elapsed": 236267,
		"internal_node_id": "0.0-18.0-1.0"
	},
	{
		"rt": 265.6649999989895,
		"stimulus": "take a taxi without paying",
		"key_press": 74,
		"trial_type": "html-keyboard-response",
		"trial_index": 273,
		"time_elapsed": 236534,
		"internal_node_id": "0.0-18.1-0.1",
		"modal_type": "immoral",
		"speed": "fast",
		"vignette": "Josh",
		"internal_type": "stimulus",
		"answered": "impossible"
	},
	{
		"rt": null,
		"stimulus": "",
		"key_press": null,
		"trial_type": "html-keyboard-response",
		"trial_index": 274,
		"time_elapsed": 237039,
		"internal_node_id": "0.0-18.1-1.1"
	},
	{
		"rt": 176.0050000011688,
		"stimulus": "take another driver hostage",
		"key_press": 70,
		"trial_type": "html-keyboard-response",
		"trial_index": 275,
		"time_elapsed": 237216,
		"internal_node_id": "0.0-18.2-0.2",
		"modal_type": "immoral",
		"speed": "fast",
		"vignette": "Josh",
		"internal_type": "stimulus",
		"answered": "possible"
	},
	{
		"rt": null,
		"stimulus": "",
		"key_press": null,
		"trial_type": "html-keyboard-response",
		"trial_index": 276,
		"time_elapsed": 237721,
		"internal_node_id": "0.0-18.2-1.2"
	},
	{
		"rt": 194.74500000069384,
		"stimulus": "sneak onto public transportation",
		"key_press": 70,
		"trial_type": "html-keyboard-response",
		"trial_index": 277,
		"time_elapsed": 237917,
		"internal_node_id": "0.0-18.3-0.3",
		"modal_type": "immoral",
		"speed": "fast",
		"vignette": "Josh",
		"internal_type": "stimulus",
		"answered": "possible"
	},
	{
		"rt": null,
		"stimulus": "",
		"key_press": null,
		"trial_type": "html-keyboard-response",
		"trial_index": 278,
		"time_elapsed": 238422,
		"internal_node_id": "0.0-18.3-1.3"
	},
	{
		"rt": 133.8099999993574,
		"stimulus": "get a new car by thinking",
		"key_press": 70,
		"trial_type": "html-keyboard-response",
		"trial_index": 279,
		"time_elapsed": 238557,
		"internal_node_id": "0.0-18.4-0.4",
		"modal_type": "impossible",
		"speed": "fast",
		"vignette": "Josh",
		"internal_type": "stimulus",
		"answered": "possible"
	},
	{
		"rt": null,
		"stimulus": "",
		"key_press": null,
		"trial_type": "html-keyboard-response",
		"trial_index": 280,
		"time_elapsed": 239057,
		"internal_node_id": "0.0-18.4-1.4"
	},
	{
		"rt": 174.4399999952293,
		"stimulus": "ride a cat to the airport",
		"key_press": 70,
		"trial_type": "html-keyboard-response",
		"trial_index": 281,
		"time_elapsed": 239233,
		"internal_node_id": "0.0-18.5-0.5",
		"modal_type": "impossible",
		"speed": "fast",
		"vignette": "Josh",
		"internal_type": "stimulus",
		"answered": "possible"
	},
	{
		"rt": null,
		"stimulus": "",
		"key_press": null,
		"trial_type": "html-keyboard-response",
		"trial_index": 282,
		"time_elapsed": 239736,
		"internal_node_id": "0.0-18.5-1.5"
	},
	{
		"rt": 226.69999999925494,
		"stimulus": "teleport himself to the airport",
		"key_press": 70,
		"trial_type": "html-keyboard-response",
		"trial_index": 283,
		"time_elapsed": 239963,
		"internal_node_id": "0.0-18.6-0.6",
		"modal_type": "impossible",
		"speed": "fast",
		"vignette": "Josh",
		"internal_type": "stimulus",
		"answered": "possible"
	},
	{
		"rt": null,
		"stimulus": "",
		"key_press": null,
		"trial_type": "html-keyboard-response",
		"trial_index": 284,
		"time_elapsed": 240467,
		"internal_node_id": "0.0-18.6-1.6"
	},
	{
		"rt": 75.87999999668682,
		"stimulus": "levitate and fly to the airport",
		"key_press": 70,
		"trial_type": "html-keyboard-response",
		"trial_index": 285,
		"time_elapsed": 240544,
		"internal_node_id": "0.0-18.7-0.7",
		"modal_type": "impossible",
		"speed": "fast",
		"vignette": "Josh",
		"internal_type": "stimulus",
		"answered": "possible"
	},
	{
		"rt": null,
		"stimulus": "",
		"key_press": null,
		"trial_type": "html-keyboard-response",
		"trial_index": 286,
		"time_elapsed": 241048,
		"internal_node_id": "0.0-18.7-1.7"
	},
	{
		"rt": 195.5999999991036,
		"stimulus": "beckon a friend passing by",
		"key_press": 70,
		"trial_type": "html-keyboard-response",
		"trial_index": 287,
		"time_elapsed": 241245,
		"internal_node_id": "0.0-18.8-0.8",
		"modal_type": "improbable",
		"speed": "fast",
		"vignette": "Josh",
		"internal_type": "stimulus",
		"answered": "possible"
	},
	{
		"rt": null,
		"stimulus": "",
		"key_press": null,
		"trial_type": "html-keyboard-response",
		"trial_index": 288,
		"time_elapsed": 241750,
		"internal_node_id": "0.0-18.8-1.8"
	},
	{
		"rt": 178.8550000055693,
		"stimulus": "convince the airport to delay flight",
		"key_press": 70,
		"trial_type": "html-keyboard-response",
		"trial_index": 289,
		"time_elapsed": 241930,
		"internal_node_id": "0.0-18.9-0.9",
		"modal_type": "improbable",
		"speed": "fast",
		"vignette": "Josh",
		"internal_type": "stimulus",
		"answered": "possible"
	},
	{
		"rt": null,
		"stimulus": "",
		"key_press": null,
		"trial_type": "html-keyboard-response",
		"trial_index": 290,
		"time_elapsed": 242430,
		"internal_node_id": "0.0-18.9-1.9"
	},
	{
		"rt": 247.34000000171363,
		"stimulus": "get a stranger to drive him",
		"key_press": 70,
		"trial_type": "html-keyboard-response",
		"trial_index": 291,
		"time_elapsed": 242679,
		"internal_node_id": "0.0-18.10-0.10",
		"modal_type": "improbable",
		"speed": "fast",
		"vignette": "Josh",
		"internal_type": "stimulus",
		"answered": "possible"
	},
	{
		"rt": null,
		"stimulus": "",
		"key_press": null,
		"trial_type": "html-keyboard-response",
		"trial_index": 292,
		"time_elapsed": 243184,
		"internal_node_id": "0.0-18.10-1.10"
	},
	{
		"rt": 265.9650000059628,
		"stimulus": "arrange for a private plane",
		"key_press": 70,
		"trial_type": "html-keyboard-response",
		"trial_index": 293,
		"time_elapsed": 243450,
		"internal_node_id": "0.0-18.11-0.11",
		"modal_type": "improbable",
		"speed": "fast",
		"vignette": "Josh",
		"internal_type": "stimulus",
		"answered": "possible"
	},
	{
		"rt": null,
		"stimulus": "",
		"key_press": null,
		"trial_type": "html-keyboard-response",
		"trial_index": 294,
		"time_elapsed": 243952,
		"internal_node_id": "0.0-18.11-1.11"
	},
	{
		"rt": 272.61999999609543,
		"stimulus": "reschedule for a later flight",
		"key_press": 70,
		"trial_type": "html-keyboard-response",
		"trial_index": 295,
		"time_elapsed": 244225,
		"internal_node_id": "0.0-18.12-0.12",
		"modal_type": "possible",
		"speed": "fast",
		"vignette": "Josh",
		"internal_type": "stimulus",
		"answered": "possible"
	},
	{
		"rt": null,
		"stimulus": "",
		"key_press": null,
		"trial_type": "html-keyboard-response",
		"trial_index": 296,
		"time_elapsed": 244726,
		"internal_node_id": "0.0-18.12-1.12"
	},
	{
		"rt": 202.19499999802792,
		"stimulus": "ask the gas station clerk for help",
		"key_press": 70,
		"trial_type": "html-keyboard-response",
		"trial_index": 297,
		"time_elapsed": 244929,
		"internal_node_id": "0.0-18.13-0.13",
		"modal_type": "possible",
		"speed": "fast",
		"vignette": "Josh",
		"internal_type": "stimulus",
		"answered": "possible"
	},
	{
		"rt": null,
		"stimulus": "",
		"key_press": null,
		"trial_type": "html-keyboard-response",
		"trial_index": 298,
		"time_elapsed": 245435,
		"internal_node_id": "0.0-18.13-1.13"
	},
	{
		"rt": 291.8050000007497,
		"stimulus": "call a friend for a ride",
		"key_press": 70,
		"trial_type": "html-keyboard-response",
		"trial_index": 299,
		"time_elapsed": 245727,
		"internal_node_id": "0.0-18.14-0.14",
		"modal_type": "possible",
		"speed": "fast",
		"vignette": "Josh",
		"internal_type": "stimulus",
		"answered": "possible"
	},
	{
		"rt": null,
		"stimulus": "",
		"key_press": null,
		"trial_type": "html-keyboard-response",
		"trial_index": 300,
		"time_elapsed": 246232,
		"internal_node_id": "0.0-18.14-1.14"
	},
	{
		"rt": 657.2749999977532,
		"stimulus": "take public transportation",
		"key_press": 74,
		"trial_type": "html-keyboard-response",
		"trial_index": 301,
		"time_elapsed": 246891,
		"internal_node_id": "0.0-18.15-0.15",
		"modal_type": "possible",
		"speed": "fast",
		"vignette": "Josh",
		"internal_type": "stimulus",
		"answered": "impossible"
	},
	{
		"rt": null,
		"stimulus": "",
		"key_press": null,
		"trial_type": "html-keyboard-response",
		"trial_index": 302,
		"time_elapsed": 247396,
		"internal_node_id": "0.0-18.15-1.15"
	},
	{
		"rt": 119.7150000007241,
		"stimulus": "book a flight for next year",
		"key_press": 74,
		"trial_type": "html-keyboard-response",
		"trial_index": 303,
		"time_elapsed": 247516,
		"internal_node_id": "0.0-18.16-0.16",
		"modal_type": "irrational",
		"speed": "fast",
		"vignette": "Josh",
		"internal_type": "stimulus",
		"answered": "impossible"
	},
	{
		"rt": null,
		"stimulus": "",
		"key_press": null,
		"trial_type": "html-keyboard-response",
		"trial_index": 304,
		"time_elapsed": 248020,
		"internal_node_id": "0.0-18.16-1.16"
	},
	{
		"rt": 147.74000000033993,
		"stimulus": "sell car for ride to airport",
		"key_press": 74,
		"trial_type": "html-keyboard-response",
		"trial_index": 305,
		"time_elapsed": 248168,
		"internal_node_id": "0.0-18.17-0.17",
		"modal_type": "irrational",
		"speed": "fast",
		"vignette": "Josh",
		"internal_type": "stimulus",
		"answered": "impossible"
	},
	{
		"rt": null,
		"stimulus": "",
		"key_press": null,
		"trial_type": "html-keyboard-response",
		"trial_index": 306,
		"time_elapsed": 248669,
		"internal_node_id": "0.0-18.17-1.17"
	},
	{
		"rt": 234.66999999800464,
		"stimulus": "pay 1000 dollars for a ride",
		"key_press": 74,
		"trial_type": "html-keyboard-response",
		"trial_index": 307,
		"time_elapsed": 248905,
		"internal_node_id": "0.0-18.18-0.18",
		"modal_type": "irrational",
		"speed": "fast",
		"vignette": "Josh",
		"internal_type": "stimulus",
		"answered": "impossible"
	},
	{
		"rt": null,
		"stimulus": "",
		"key_press": null,
		"trial_type": "html-keyboard-response",
		"trial_index": 308,
		"time_elapsed": 249406,
		"internal_node_id": "0.0-18.18-1.18"
	},
	{
		"rt": 312.70999999833293,
		"stimulus": "try to run there in time",
		"key_press": 74,
		"trial_type": "html-keyboard-response",
		"trial_index": 309,
		"time_elapsed": 249719,
		"internal_node_id": "0.0-18.19-0.19",
		"modal_type": "irrational",
		"speed": "fast",
		"vignette": "Josh",
		"internal_type": "stimulus",
		"answered": "impossible"
	},
	{
		"rt": null,
		"stimulus": "",
		"key_press": null,
		"trial_type": "html-keyboard-response",
		"trial_index": 310,
		"time_elapsed": 250225,
		"internal_node_id": "0.0-18.19-1.19"
	},
	{
		"view_history": "[{\"page_index\":0,\"viewing_time\":1171.5449999974226},{\"page_index\":1,\"viewing_time\":448.7799999988056}]",
		"rt": 1620.6349999993108,
		"internal_type": "instructions",
		"trial_type": "instructions",
		"trial_index": 311,
		"time_elapsed": 251848,
		"internal_node_id": "0.0-19.0"
	},
	{
		"rt": 694.5749999940745,
		"stimulus": "drop out of the college",
		"key_press": 74,
		"trial_type": "html-keyboard-response",
		"trial_index": 312,
		"time_elapsed": 252543,
		"internal_node_id": "0.0-20.0-0.0",
		"modal_type": "irrational",
		"speed": "fast",
		"vignette": "Sara",
		"internal_type": "stimulus",
		"answered": "impossible"
	},
	{
		"rt": null,
		"stimulus": "",
		"key_press": null,
		"trial_type": "html-keyboard-response",
		"trial_index": 313,
		"time_elapsed": 253044,
		"internal_node_id": "0.0-20.0-1.0"
	},
	{
		"rt": 82.04499999555992,
		"stimulus": "try to answer every question incorrectly",
		"key_press": 74,
		"trial_type": "html-keyboard-response",
		"trial_index": 314,
		"time_elapsed": 253127,
		"internal_node_id": "0.0-20.1-0.1",
		"modal_type": "irrational",
		"speed": "fast",
		"vignette": "Sara",
		"internal_type": "stimulus",
		"answered": "impossible"
	},
	{
		"rt": null,
		"stimulus": "",
		"key_press": null,
		"trial_type": "html-keyboard-response",
		"trial_index": 315,
		"time_elapsed": 253632,
		"internal_node_id": "0.0-20.1-1.1"
	},
	{
		"rt": 209.88500000385102,
		"stimulus": "turn in last month’s exam",
		"key_press": 74,
		"trial_type": "html-keyboard-response",
		"trial_index": 316,
		"time_elapsed": 253843,
		"internal_node_id": "0.0-20.2-0.2",
		"modal_type": "irrational",
		"speed": "fast",
		"vignette": "Sara",
		"internal_type": "stimulus",
		"answered": "impossible"
	},
	{
		"rt": null,
		"stimulus": "",
		"key_press": null,
		"trial_type": "html-keyboard-response",
		"trial_index": 317,
		"time_elapsed": 254348,
		"internal_node_id": "0.0-20.2-1.2"
	},
	{
		"rt": null,
		"stimulus": "start studying after the exam",
		"key_press": null,
		"trial_type": "html-keyboard-response",
		"trial_index": 318,
		"time_elapsed": 255855,
		"internal_node_id": "0.0-20.3-0.3",
		"modal_type": "irrational",
		"speed": "fast",
		"vignette": "Sara",
		"internal_type": "stimulus",
		"answered": "NA"
	},
	{
		"rt": null,
		"stimulus": "",
		"key_press": null,
		"trial_type": "html-keyboard-response",
		"trial_index": 319,
		"time_elapsed": 256360,
		"internal_node_id": "0.0-20.3-1.3"
	},
	{
		"rt": null,
		"stimulus": "guess correctly on most questions",
		"key_press": null,
		"trial_type": "html-keyboard-response",
		"trial_index": 320,
		"time_elapsed": 257866,
		"internal_node_id": "0.0-20.4-0.4",
		"modal_type": "improbable",
		"speed": "fast",
		"vignette": "Sara",
		"internal_type": "stimulus",
		"answered": "NA"
	},
	{
		"rt": null,
		"stimulus": "",
		"key_press": null,
		"trial_type": "html-keyboard-response",
		"trial_index": 321,
		"time_elapsed": 258372,
		"internal_node_id": "0.0-20.4-1.4"
	},
	{
		"rt": null,
		"stimulus": "have her professor excuse her",
		"key_press": null,
		"trial_type": "html-keyboard-response",
		"trial_index": 322,
		"time_elapsed": 259873,
		"internal_node_id": "0.0-20.5-0.5",
		"modal_type": "improbable",
		"speed": "fast",
		"vignette": "Sara",
		"internal_type": "stimulus",
		"answered": "NA"
	},
	{
		"rt": null,
		"stimulus": "",
		"key_press": null,
		"trial_type": "html-keyboard-response",
		"trial_index": 323,
		"time_elapsed": 260379,
		"internal_node_id": "0.0-20.5-1.5"
	},
	{
		"rt": null,
		"stimulus": "find out the test is cancelled",
		"key_press": null,
		"trial_type": "html-keyboard-response",
		"trial_index": 324,
		"time_elapsed": 261885,
		"internal_node_id": "0.0-20.6-0.6",
		"modal_type": "improbable",
		"speed": "fast",
		"vignette": "Sara",
		"internal_type": "stimulus",
		"answered": "NA"
	},
	{
		"rt": null,
		"stimulus": "",
		"key_press": null,
		"trial_type": "html-keyboard-response",
		"trial_index": 325,
		"time_elapsed": 262391,
		"internal_node_id": "0.0-20.6-1.6"
	},
	{
		"rt": null,
		"stimulus": "realize the test is optional",
		"key_press": null,
		"trial_type": "html-keyboard-response",
		"trial_index": 326,
		"time_elapsed": 263898,
		"internal_node_id": "0.0-20.7-0.7",
		"modal_type": "improbable",
		"speed": "fast",
		"vignette": "Sara",
		"internal_type": "stimulus",
		"answered": "NA"
	},
	{
		"rt": null,
		"stimulus": "",
		"key_press": null,
		"trial_type": "html-keyboard-response",
		"trial_index": 327,
		"time_elapsed": 264403,
		"internal_node_id": "0.0-20.7-1.7"
	},
	{
		"rt": null,
		"stimulus": "lie about a family emergency",
		"key_press": null,
		"trial_type": "html-keyboard-response",
		"trial_index": 328,
		"time_elapsed": 265905,
		"internal_node_id": "0.0-20.8-0.8",
		"modal_type": "immoral",
		"speed": "fast",
		"vignette": "Sara",
		"internal_type": "stimulus",
		"answered": "NA"
	},
	{
		"rt": null,
		"stimulus": "",
		"key_press": null,
		"trial_type": "html-keyboard-response",
		"trial_index": 329,
		"time_elapsed": 266411,
		"internal_node_id": "0.0-20.8-1.8"
	},
	{
		"rt": null,
		"stimulus": "copy her classmate’s answers",
		"key_press": null,
		"trial_type": "html-keyboard-response",
		"trial_index": 330,
		"time_elapsed": 267917,
		"internal_node_id": "0.0-20.9-0.9",
		"modal_type": "immoral",
		"speed": "fast",
		"vignette": "Sara",
		"internal_type": "stimulus",
		"answered": "NA"
	},
	{
		"rt": null,
		"stimulus": "",
		"key_press": null,
		"trial_type": "html-keyboard-response",
		"trial_index": 331,
		"time_elapsed": 268423,
		"internal_node_id": "0.0-20.9-1.9"
	},
	{
		"rt": null,
		"stimulus": "poison her professor before class",
		"key_press": null,
		"trial_type": "html-keyboard-response",
		"trial_index": 332,
		"time_elapsed": 269929,
		"internal_node_id": "0.0-20.10-0.10",
		"modal_type": "immoral",
		"speed": "fast",
		"vignette": "Sara",
		"internal_type": "stimulus",
		"answered": "NA"
	},
	{
		"rt": null,
		"stimulus": "",
		"key_press": null,
		"trial_type": "html-keyboard-response",
		"trial_index": 333,
		"time_elapsed": 270435,
		"internal_node_id": "0.0-20.10-1.10"
	},
	{
		"rt": null,
		"stimulus": "pull the fire alarm during testing",
		"key_press": null,
		"trial_type": "html-keyboard-response",
		"trial_index": 334,
		"time_elapsed": 271942,
		"internal_node_id": "0.0-20.11-0.11",
		"modal_type": "immoral",
		"speed": "fast",
		"vignette": "Sara",
		"internal_type": "stimulus",
		"answered": "NA"
	},
	{
		"rt": null,
		"stimulus": "",
		"key_press": null,
		"trial_type": "html-keyboard-response",
		"trial_index": 335,
		"time_elapsed": 272447,
		"internal_node_id": "0.0-20.11-1.11"
	},
	{
		"rt": null,
		"stimulus": "pause time to study",
		"key_press": null,
		"trial_type": "html-keyboard-response",
		"trial_index": 336,
		"time_elapsed": 273951,
		"internal_node_id": "0.0-20.12-0.12",
		"modal_type": "impossible",
		"speed": "fast",
		"vignette": "Sara",
		"internal_type": "stimulus",
		"answered": "NA"
	},
	{
		"rt": null,
		"stimulus": "",
		"key_press": null,
		"trial_type": "html-keyboard-response",
		"trial_index": 337,
		"time_elapsed": 274457,
		"internal_node_id": "0.0-20.12-1.12"
	},
	{
		"rt": null,
		"stimulus": "acquire a photographic memory",
		"key_press": null,
		"trial_type": "html-keyboard-response",
		"trial_index": 338,
		"time_elapsed": 275963,
		"internal_node_id": "0.0-20.13-0.13",
		"modal_type": "impossible",
		"speed": "fast",
		"vignette": "Sara",
		"internal_type": "stimulus",
		"answered": "NA"
	},
	{
		"rt": null,
		"stimulus": "",
		"key_press": null,
		"trial_type": "html-keyboard-response",
		"trial_index": 339,
		"time_elapsed": 276469,
		"internal_node_id": "0.0-20.13-1.13"
	},
	{
		"rt": 560.9200000035344,
		"stimulus": "upload the answers to her brain",
		"key_press": 74,
		"trial_type": "html-keyboard-response",
		"trial_index": 340,
		"time_elapsed": 277032,
		"internal_node_id": "0.0-20.14-0.14",
		"modal_type": "impossible",
		"speed": "fast",
		"vignette": "Sara",
		"internal_type": "stimulus",
		"answered": "impossible"
	},
	{
		"rt": null,
		"stimulus": "",
		"key_press": null,
		"trial_type": "html-keyboard-response",
		"trial_index": 341,
		"time_elapsed": 277536,
		"internal_node_id": "0.0-20.14-1.14"
	},
	{
		"rt": 160.42000000015832,
		"stimulus": "read her smartest classmate’s mind",
		"key_press": 74,
		"trial_type": "html-keyboard-response",
		"trial_index": 342,
		"time_elapsed": 277697,
		"internal_node_id": "0.0-20.15-0.15",
		"modal_type": "impossible",
		"speed": "fast",
		"vignette": "Sara",
		"internal_type": "stimulus",
		"answered": "impossible"
	},
	{
		"rt": null,
		"stimulus": "",
		"key_press": null,
		"trial_type": "html-keyboard-response",
		"trial_index": 343,
		"time_elapsed": 278202,
		"internal_node_id": "0.0-20.15-1.15"
	},
	{
		"rt": 115.65500000142492,
		"stimulus": "ask for an exam extension",
		"key_press": 74,
		"trial_type": "html-keyboard-response",
		"trial_index": 344,
		"time_elapsed": 278319,
		"internal_node_id": "0.0-20.16-0.16",
		"modal_type": "possible",
		"speed": "fast",
		"vignette": "Sara",
		"internal_type": "stimulus",
		"answered": "impossible"
	},
	{
		"rt": null,
		"stimulus": "",
		"key_press": null,
		"trial_type": "html-keyboard-response",
		"trial_index": 345,
		"time_elapsed": 278824,
		"internal_node_id": "0.0-20.16-1.16"
	},
	{
		"rt": 27.509999999892898,
		"stimulus": "study hard the whole night",
		"key_press": 74,
		"trial_type": "html-keyboard-response",
		"trial_index": 346,
		"time_elapsed": 278852,
		"internal_node_id": "0.0-20.17-0.17",
		"modal_type": "possible",
		"speed": "fast",
		"vignette": "Sara",
		"internal_type": "stimulus",
		"answered": "impossible"
	},
	{
		"rt": null,
		"stimulus": "",
		"key_press": null,
		"trial_type": "html-keyboard-response",
		"trial_index": 347,
		"time_elapsed": 279357,
		"internal_node_id": "0.0-20.17-1.17"
	},
	{
		"rt": 78.53500000055647,
		"stimulus": "participate in a study session",
		"key_press": 74,
		"trial_type": "html-keyboard-response",
		"trial_index": 348,
		"time_elapsed": 279437,
		"internal_node_id": "0.0-20.18-0.18",
		"modal_type": "possible",
		"speed": "fast",
		"vignette": "Sara",
		"internal_type": "stimulus",
		"answered": "impossible"
	},
	{
		"rt": null,
		"stimulus": "",
		"key_press": null,
		"trial_type": "html-keyboard-response",
		"trial_index": 349,
		"time_elapsed": 279942,
		"internal_node_id": "0.0-20.18-1.18"
	},
	{
		"rt": 307.90999999589985,
		"stimulus": "ask her professor for help",
		"key_press": 74,
		"trial_type": "html-keyboard-response",
		"trial_index": 350,
		"time_elapsed": 280251,
		"internal_node_id": "0.0-20.19-0.19",
		"modal_type": "possible",
		"speed": "fast",
		"vignette": "Sara",
		"internal_type": "stimulus",
		"answered": "impossible"
	},
	{
		"rt": null,
		"stimulus": "",
		"key_press": null,
		"trial_type": "html-keyboard-response",
		"trial_index": 351,
		"time_elapsed": 280752,
		"internal_node_id": "0.0-20.19-1.19"
	},
	{
		"view_history": "[{\"page_index\":0,\"viewing_time\":696.5049999998882},{\"page_index\":1,\"viewing_time\":448.3650000038324}]",
		"rt": 1145.120000001043,
		"internal_type": "instructions",
		"trial_type": "instructions",
		"trial_index": 352,
		"time_elapsed": 281899,
		"internal_node_id": "0.0-21.0"
	},
	{
		"rt": 1204.7199999942677,
		"stimulus": "leave before the woman returns",
		"key_press": 74,
		"trial_type": "html-keyboard-response",
		"trial_index": 353,
		"time_elapsed": 283105,
		"internal_node_id": "0.0-22.0-0.0",
		"modal_type": "immoral",
		"speed": "fast",
		"vignette": "Bob",
		"internal_type": "stimulus",
		"answered": "impossible"
	},
	{
		"rt": null,
		"stimulus": "",
		"key_press": null,
		"trial_type": "html-keyboard-response",
		"trial_index": 354,
		"time_elapsed": 283610,
		"internal_node_id": "0.0-22.0-1.0"
	},
	{
		"rt": 68.95000000076834,
		"stimulus": "lie that the bag was stolen at gunpoint",
		"key_press": 74,
		"trial_type": "html-keyboard-response",
		"trial_index": 355,
		"time_elapsed": 283680,
		"internal_node_id": "0.0-22.1-0.1",
		"modal_type": "immoral",
		"speed": "fast",
		"vignette": "Bob",
		"internal_type": "stimulus",
		"answered": "impossible"
	},
	{
		"rt": null,
		"stimulus": "",
		"key_press": null,
		"trial_type": "html-keyboard-response",
		"trial_index": 356,
		"time_elapsed": 284185,
		"internal_node_id": "0.0-22.1-1.1"
	},
	{
		"rt": 89.86000000004424,
		"stimulus": "blame another person at the library",
		"key_press": 74,
		"trial_type": "html-keyboard-response",
		"trial_index": 357,
		"time_elapsed": 284276,
		"internal_node_id": "0.0-22.2-0.2",
		"modal_type": "immoral",
		"speed": "fast",
		"vignette": "Bob",
		"internal_type": "stimulus",
		"answered": "impossible"
	},
	{
		"rt": null,
		"stimulus": "",
		"key_press": null,
		"trial_type": "html-keyboard-response",
		"trial_index": 358,
		"time_elapsed": 284780,
		"internal_node_id": "0.0-22.2-1.2"
	},
	{
		"rt": 58.23999999847729,
		"stimulus": "pretend to be deaf",
		"key_press": 74,
		"trial_type": "html-keyboard-response",
		"trial_index": 359,
		"time_elapsed": 284839,
		"internal_node_id": "0.0-22.3-0.3",
		"modal_type": "immoral",
		"speed": "fast",
		"vignette": "Bob",
		"internal_type": "stimulus",
		"answered": "impossible"
